Folder: lasersafe_materials/public_html/data/backup (part 3)

File: makrolon-flieder_blue_539.csv
wavelength_nm,intensity,intensity_smoothed,,wavelength_nm2,intensity_i0,intensity_i0_smoothed,,wavelength_nm3,,transmission,transmission_perc,transmission_perc_smoothed
173.232,24.191,#N/A,,173.232,26.024,#N/A,,173.232,92.9565,#N/A,#N/A,#N/A
182.226,33.31,32.7924,,182.226,37.219,36.6837,,182.226,89.4973,0.893923,89.3923,#N/A
191.22,30.762,30.9574,,191.22,43.219,43.5829,,191.22,71.177,0.71031,71.031,80.2876
200.214,35.032,33.8505,,200.214,38.487,42.1124,,200.214,91.0229,0.803815,80.3815,74.2053
209.208,30.029,33.7612,,209.208,40.21,41.34,,209.208,74.6804,0.816671,81.6671,82.5941
218.203,32.208,31.8774,,218.203,43.66,39.32,,218.203,73.77,0.810718,81.0718,78.2206
227.197,32.569,34.4858,,227.197,40.928,41.6867,,227.197,79.5763,0.827261,82.7261,80.8034
236.191,33.929,33.5307,,236.191,45.378,43.5585,,236.191,74.7697,0.769785,76.9785,76.4784
245.185,54.199,49.1732,,245.185,68.191,61.595,,245.185,79.4812,0.79833,79.833,76.5014
254.158,66.832,62.0686,,254.158,83.913,79.8665,,254.158,79.6444,0.777154,77.7154,76.3077
263.066,67.465,68.9227,,263.066,88.272,85.6838,,263.066,76.4285,0.804384,80.4384,78.7736
271.999,70.553,69.748,,271.999,96.63,93.8624,,271.999,73.0136,0.743088,74.3088,77.0259
280.958,68.822,68.8336,,280.958,90.533,89.5566,,280.958,76.0187,0.768604,76.8604,75.3891
289.943,73.273,72.8848,,289.943,90.255,90.6136,,289.943,81.1844,0.804347,80.4347,77.1541
298.952,72.269,69.5554,,298.952,95.431,93.5602,,298.952,75.7291,0.743429,74.3429,77.2521
307.987,66.266,68.2454,,307.987,92.334,89.9978,,307.987,71.7677,0.758301,75.8301,75.6426
317.047,69.262,66.4841,,317.047,95.055,94.2753,,317.047,72.8652,0.705212,70.5212,73.1038
326.132,70.258,70.2526,,326.132,94.958,93.6745,,326.132,73.9885,0.749966,74.9966,72.4369
335.243,75.435,74.8216,,335.243,101.496,98.891,,335.243,74.3231,0.756607,75.6607,73.5689
344.379,70.795,72.4873,,344.379,104.217,100.503,,344.379,67.9304,0.721246,72.1246,73.9932
353.539,76.407,73.9634,,353.539,106.567,104.59,,353.539,71.6986,0.707173,70.7173,70.7882
362.725,78.006,79.4923,,362.725,115.754,112.854,,362.725,67.3895,0.704379,70.4379,70.839
371.936,83.069,83.4633,,371.936,123.06,119.205,,371.936,67.5028,0.700167,70.0167,69.2555
381.171,94.566,90.322,,381.171,137.525,133.26,,381.171,68.7628,0.677789,67.7789,68.8807
390.432,102.362,95.6449,,390.432,150.717,144.106,,390.432,67.9167,0.663712,66.3712,65.9388
399.718,212.007,161.196,,399.718,272.022,218.252,,399.718,77.9374,0.738578,73.8578,69.5571
409.028,1089.8,708.928,,409.028,1208.244,808.398,,409.028,90.197,0.876954,87.6954,81.0719
418.364,6010.768,4025.6,,418.364,6479.905,4361.01,,418.364,92.7601,0.923088,92.3088,90.7415
427.724,22513.075,16710.1,,427.724,23830.084,17724.6,,427.724,94.4733,0.942768,94.2768,93.4313
437.108,53649.255,43754.6,,437.108,56269.108,46051.4,,437.108,95.3441,0.950124,95.0124,94.629
446.518,58976.651,60915.4,,446.518,60380.834,61991.5,,446.518,97.6745,0.982641,98.2641,96.874
455.952,24774.728,33670.3,,455.952,26403.844,35592,,455.952,93.83,0.946006,94.6006,96.2592
465.411,10731.894,14172.8,,465.411,11596.916,15200.4,,465.411,92.5409,0.932397,93.2397,93.9209
474.895,5479.594,6643.01,,474.895,6015.105,7261.93,,474.895,91.0972,0.914772,91.4772,92.316
484.403,4086.88,4359.95,,484.403,4613.299,4880.49,,484.403,88.5891,0.893344,89.3344,90.5112
493.936,5274.127,4765.91,,493.936,6134.021,5491.74,,493.936,85.9816,0.867832,86.7832,88.0799
503.493,8317.818,7368.02,,503.493,10106.778,8836.5,,503.493,82.2994,0.833817,83.3817,85.1155
513.074,11369.523,10530.4,,513.074,14446.963,13216.5,,513.074,78.6984,0.796765,79.6765,81.5468
522.681,13037.864,12642.3,,522.681,17402.064,16648.3,,522.681,74.9214,0.759373,75.9373,77.8157
532.311,13152.02,13222.9,,532.311,18380.58,18221.8,,532.311,71.5539,0.725665,72.5665,74.239
541.966,12269.722,12554.9,,541.966,18090.567,18218.8,,541.966,67.8239,0.689114,68.9114,70.7359
551.645,11257.577,11552.1,,551.645,17389.423,17628.1,,551.645,64.7381,0.655323,65.5323,67.1356
561.348,10302.824,10571.6,,561.348,16250.673,16589.7,,561.348,63.3994,0.637237,63.7237,64.5017
571.076,9345.841,9617.41,,571.076,14842.811,15280.2,,571.076,62.9654,0.629402,62.9402,63.2473
580.828,8387.985,8665.47,,580.828,13316.289,13768.3,,580.828,62.9904,0.629379,62.9379,62.9389
590.604,7429.883,7701.81,,590.604,11676.05,12159.6,,590.604,63.6335,0.633393,63.3393,63.0368
600.404,6599.867,6829.45,,600.404,9996.849,10502.9,,600.404,66.0195,0.650246,65.0246,63.9862
610.229,5826.831,6042.5,,610.229,8324.554,8809.51,,610.229,69.9957,0.685906,68.5906,66.6856
620.077,5099.384,5312.45,,620.077,6734.089,7201.65,,620.077,75.7249,0.737672,73.7672,71.0942
629.949,4444.849,4639.71,,629.949,5317.543,5729.63,,629.949,83.5884,0.809775,80.9775,77.1452
639.846,3808.242,3988.08,,639.846,4218.878,4532.11,,639.846,90.2667,0.879962,87.9962,84.5723
649.766,3187.438,3370.45,,649.766,3271.211,3533.54,,649.766,97.4391,0.953845,95.3845,91.6406
659.71,2589.427,2756.03,,659.71,2492.87,2714.3,,659.71,103.873,1.01537,101.537,98.3713
669.678,2027.096,2181.71,,669.678,1873.849,2048.16,,669.678,108.178,1.0652,106.52,104.23
679.67,1559.731,1689.81,,679.67,1407.015,1539.76,,679.67,110.854,1.09745,109.745,108.156
689.686,1161.949,1274.01,,689.686,1055.543,1148.23,,689.686,110.081,1.10954,110.954,110.671
699.726,876.056,960.191,,699.726,793.442,867.434,,699.726,110.412,1.10693,110.693,110.735
709.789,659.119,722.898,,709.789,609.751,660.452,,709.789,108.096,1.09455,109.455,110.119
719.876,493.352,537.776,,719.876,454.741,495.487,,719.876,108.491,1.08535,108.535,108.988
729.987,376.083,407.606,,729.987,359.991,387.199,,729.987,104.47,1.05271,105.271,106.779
740.121,305.215,319.727,,740.121,300.205,312.262,,740.121,101.669,1.02391,102.391,103.962
750.279,248.148,264.051,,750.279,248.84,263.198,,750.279,99.7219,1.00324,100.324,101.854
760.46,188.107,207.962,,760.46,204.293,221.999,,760.46,92.0771,0.936767,93.6767,96.4949
770.665,173.924,178.288,,770.665,193.588,199.951,,770.665,89.8423,0.891659,89.1659,90.0056
780.894,152.369,157.543,,780.894,180.465,184.937,,780.894,84.4313,0.85187,85.187,86.9817
791.146,135.509,138.765,,791.146,155.299,160.44,,791.146,87.2568,0.864902,86.4902,86.0745
801.421,117.878,121.835,,801.421,149.967,149.915,,801.421,78.6026,0.812694,81.2694,84.8652
811.72,118.597,117.965,,811.72,146.042,147.85,,811.72,81.2075,0.797873,79.7873,79.8096
822.042,133.746,126.925,,822.042,162.001,155.059,,822.042,82.5587,0.81856,81.856,79.4156
832.387,191.058,174.944,,832.387,212.616,200.136,,832.387,89.8606,0.874123,87.4123,84.4856
842.755,329.428,259.934,,842.755,333.384,272.42,,842.755,98.8134,0.954166,95.4166,90.1568
853.147,693.635,586.155,,853.147,694.657,589.044,,853.147,99.8529,0.995095,99.5095,98.4918
863.562,947.839,898.263,,863.562,925.745,874.019,,863.562,102.387,1.02774,102.774,101.227
874,1172.952,1090.33,,874,1123.132,1046.42,,874,104.436,1.04196,104.196,103.459
884.461,1615.986,1490.93,,884.461,1538.543,1420.4,,884.461,105.034,1.04965,104.965,104.661
894.946,1690.873,1718.51,,894.946,1606.768,1632.49,,894.946,105.234,1.05269,105.269,105.217
905.453,1207.717,1357.29,,905.453,1162.273,1298.52,,905.453,103.91,1.04525,104.525,105.029
915.983,791.319,899.031,,915.983,779.347,876.084,,915.983,101.536,1.02619,102.619,103.657
926.537,539.977,611.615,,926.537,550.145,611.073,,926.537,98.1518,1.00089,100.089,101.68
937.113,361.903,409.151,,937.113,374.39,419.664,,937.113,96.6647,0.974951,97.4951,98.8527
947.712,261.732,285.698,,947.712,287.625,308.57,,947.712,90.9977,0.925879,92.5879,95.4701
958.334,220.463,229.446,,958.334,235.305,247.702,,958.334,93.6924,0.926301,92.6301,92.2338
968.979,200.097,205.319,,968.979,219.156,221.753,,968.979,91.3035,0.925892,92.5892,91.9805
979.646,200.087,198.208,,979.646,223.994,219.881,,979.646,89.3269,0.901429,90.1429,90.947
990.336,222.705,216.81,,990.336,255.455,246.471,,990.336,87.1797,0.879658,87.9658,89.6153
1001.049,262.495,249.81,,1001.049,300.356,287.985,,1001.049,87.3946,0.867441,86.7441,87.4194
1011.785,324.184,298.469,,1011.785,367.422,339.365,,1011.785,88.2321,0.879492,87.9492,87.6883
1022.543,431.68,397.768,,1022.543,499.288,463.801,,1022.543,86.4591,0.857626,85.7626,86.7722
1033.324,487.072,476.259,,1033.324,578.316,561.291,,1033.324,84.2225,0.848507,84.8507,85.5433
1044.128,481.542,483.499,,1044.128,590.776,587.997,,1044.128,81.5101,0.82228,82.228,83.2204
1054.954,460.178,464.792,,1054.954,594.94,597.752,,1054.954,77.3486,0.777568,77.7568,80.1801
1065.802,435.252,445.156,,1065.802,567.258,573.583,,1065.802,76.7291,0.776097,77.6097,77.8782
1076.673,408.945,410.942,,1076.673,539.548,552.254,,1076.673,75.794,0.744117,74.4117,75.4023
1087.567,373.617,382.353,,1087.567,514.169,524.895,,1087.567,72.6642,0.728438,72.8438,74.2312
1098.461,342.085,349.291,,1098.461,495.209,503.172,,1098.461,69.0789,0.694179,69.4179,71.2444
1109.207,312.712,324.448,,1109.207,467.849,473.81,,1109.207,66.8404,0.684763,68.4763,68.9649
1119.954,288.951,295.592,,1119.954,424.267,434.548,,1119.954,68.1059,0.68023,68.023,67.814
1130.7,263.344,271.843,,1130.7,393.187,403.106,,1130.7,66.9768,0.674372,67.4372,67.5743
1141.446,229.801,241.447,,1141.446,346.154,357.45,,1141.446,66.3869,0.675471,67.5471,67.1085
1152.192,202.866,214.326,,1152.192,303.532,316.029,,1152.192,66.8351,0.678183,67.8183,66.7693
1162.938,176.904,183.23,,1162.938,273.956,282.136,,1162.938,64.5739,0.649437,64.9437,65.6921
1173.684,152.735,159.492,,1173.684,239.977,249.836,,1173.684,63.6457,0.638386,63.8386,64.3381
1184.43,141.545,147.08,,1184.43,215.417,222.34,,1184.43,65.7074,0.661511,66.1511,64.6821
1195.177,129.793,130.225,,1195.177,194.106,196.649,,1195.177,66.8671,0.662222,66.2222,65.5777
1205.923,144.217,137.833,,1205.923,193.602,190.628,,1205.923,74.4915,0.723045,72.3045,69.1198
1216.669,129.01,132.585,,1216.669,158.562,173.626,,1216.669,81.3625,0.763624,76.3624,74.1638
1227.415,83.187,92.1535,,1227.415,103.645,120.474,,1227.415,80.2615,0.764923,76.4923,76.2985
1238.161,64.674,68.0802,,1238.161,78.243,85.1732,,1238.161,82.6579,0.799315,79.9315,78.3871
1242.586,47.816,58.2367,,1242.586,64.806,76.3368,,1242.586,73.7833,0.762891,76.2891,

File: makrolon-orange_209.csv
wavelength_nm,intensity,intensity_smoothed,,wavelength_nm2,intensity_i0,intensity_i0_smoothed,,wavelength_nm3,,transmission,transmission_perc,transmission_perc_smoothed
173.232,17.315,#N/A,,173.232,26.024,#N/A,,173.232,66.5347,#N/A,#N/A,#N/A
182.226,23.994,24.372,,182.226,37.219,36.6837,,182.226,64.4671,0.664383,66.4383,#N/A
191.22,22.172,22.9356,,191.22,43.219,43.5829,,191.22,51.3015,0.526251,52.6251,56.7656
200.214,19.078,21.5742,,200.214,38.487,42.1124,,200.214,49.57,0.512302,51.2302,50.6871
209.208,20.347,20.3904,,209.208,40.21,41.34,,209.208,50.6018,0.493237,49.3237,47.5488
218.203,25.979,24.5273,,218.203,43.66,39.32,,218.203,59.503,0.623787,62.3787,57.0728
227.197,21.976,23.1082,,227.197,40.928,41.6867,,227.197,53.6943,0.554331,55.4331,56.0638
236.191,20.881,20.6172,,236.191,45.378,43.5585,,236.191,46.0157,0.473323,47.3323,51.9096
245.185,31.513,31.0111,,245.185,68.191,61.595,,245.185,46.2128,0.503468,50.3468,47.115
254.158,37.418,39.762,,254.158,83.913,79.8665,,254.158,44.5914,0.497855,49.7855,51.2662
263.066,44.141,43.2223,,263.066,88.272,85.6838,,263.066,50.0057,0.50444,50.444,48.8462
271.999,39.591,36.3184,,271.999,96.63,93.8624,,271.999,40.9717,0.386932,38.6932,45.8449
280.958,34.678,37.2956,,280.958,90.533,89.5566,,280.958,38.3043,0.416447,41.6447,43.0169
289.943,41.128,41.6066,,289.943,90.255,90.6136,,289.943,45.5687,0.459165,45.9165,44.0827
298.952,44.487,42.3217,,298.952,95.431,93.5602,,298.952,46.6169,0.452348,45.2348,45.48
307.987,37.482,40.0774,,307.987,92.334,89.9978,,307.987,40.5939,0.445315,44.5315,46.705
317.047,41.113,39.5221,,317.047,95.055,94.2753,,317.047,43.2518,0.41922,41.922,43.3401
326.132,41.289,39.8064,,326.132,94.958,93.6745,,326.132,43.4813,0.424943,42.4943,43.2692
335.243,43.92,45.016,,335.243,101.496,98.891,,335.243,43.2726,0.455209,45.5209,44.73
344.379,40.551,39.9983,,344.379,104.217,100.503,,344.379,38.9102,0.397982,39.7982,43.0922
353.539,48.184,44.4261,,353.539,106.567,104.59,,353.539,45.2147,0.424764,42.4764,39.2601
362.725,44.2,43.281,,362.725,115.754,112.854,,362.725,38.1844,0.383511,38.3511,40.6327
371.936,49.581,47.3949,,371.936,123.06,119.205,,371.936,40.2901,0.397592,39.7592,38.8753
381.171,54.933,47.3699,,381.171,137.525,133.26,,381.171,39.944,0.35547,35.547,36.661
390.432,49.698,49.5863,,390.432,150.717,144.106,,390.432,32.9744,0.344096,34.4096,35.1996
399.718,48.989,49.1476,,399.718,272.022,218.252,,399.718,18.0092,0.225187,22.5187,29.2175
409.028,55.083,53.3976,,409.028,1208.244,808.398,,409.028,4.55893,0.0660536,6.60536,14.4569
418.364,63.818,59.5634,,418.364,6479.905,4361.01,,418.364,0.98486,0.0136582,1.36582,3.45878
427.724,71.336,69.7871,,427.724,23830.084,17724.6,,427.724,0.299353,0.00393731,0.393731,0.782683
437.108,77.116,80.1822,,437.108,56269.108,46051.4,,437.108,0.137049,0.00174114,0.174114,0.261916
446.518,66.58,66.3368,,446.518,60380.834,61991.5,,446.518,0.110267,0.00107009,0.107009,0.130985
455.952,54.671,58.0219,,455.952,26403.844,35592,,455.952,0.207057,0.00163019,0.163019,0.125724
465.411,54.241,53.0271,,465.411,11596.916,15200.4,,465.411,0.467719,0.00348854,0.348854,0.242108
474.895,52.438,48.9697,,474.895,6015.105,7261.93,,474.895,0.871772,0.00674335,0.674335,0.508246
484.403,53.248,53.2126,,484.403,4613.299,4880.49,,484.403,1.15423,0.0109031,1.09031,0.875045
493.936,72.216,63.527,,493.936,6134.021,5491.74,,493.936,1.1773,0.0115677,1.15677,1.15053
503.493,137.498,111.428,,503.493,10106.778,8836.5,,503.493,1.36045,0.01261,1.261,1.19666
513.074,275.617,226.595,,513.074,14446.963,13216.5,,513.074,1.90779,0.0171449,1.71449,1.46081
522.681,763.712,574.528,,522.681,17402.064,16648.3,,522.681,4.38863,0.0345096,3.45096,2.40844
532.311,2733.24,1978.29,,532.311,18380.58,18221.8,,532.311,14.8703,0.108567,10.8567,6.37806
541.966,7705.919,6094.91,,541.966,18090.567,18218.8,,541.966,42.5963,0.334539,33.4539,20.8078
551.645,12771.693,11443.7,,551.645,17389.423,17628.1,,551.645,73.4452,0.649174,64.9174,49.3805
561.348,14693.786,14307.7,,561.348,16250.673,16589.7,,561.348,90.4196,0.862444,86.2444,76.7068
571.076,14556.925,14683.2,,571.076,14842.811,15280.2,,571.076,98.0739,0.960929,96.0929,91.7678
580.828,13543.578,13855.3,,580.828,13316.289,13768.3,,580.828,101.707,1.00632,100.632,98.6373
590.604,12169.244,12578,,590.604,11676.05,12159.6,,590.604,104.224,1.03441,103.441,102.076
600.404,10592.293,11057.2,,600.404,9996.849,10502.9,,600.404,105.956,1.05278,105.278,104.352
610.229,8917.605,9393.31,,610.229,8324.554,8809.51,,610.229,107.124,1.06627,106.627,105.96
620.077,7278.637,7749.07,,620.077,6734.089,7201.65,,620.077,108.086,1.07601,107.601,107.127
629.949,5842.022,6249.15,,629.949,5317.543,5729.63,,629.949,109.863,1.09067,109.067,108.104
639.846,4616.733,4976.54,,639.846,4218.878,4532.11,,639.846,109.43,1.09806,109.806,109.579
649.766,3587.987,3882.26,,649.766,3271.211,3533.54,,649.766,109.684,1.09869,109.869,109.683
659.71,2743.872,2975.74,,659.71,2492.87,2714.3,,659.71,110.069,1.09632,109.632,109.695
669.678,2056.678,2250.92,,669.678,1873.849,2048.16,,669.678,109.757,1.09899,109.899,110.059
679.67,1541.415,1682.39,,679.67,1407.015,1539.76,,679.67,109.552,1.09263,109.263,109.579
689.686,1134.887,1242.18,,689.686,1055.543,1148.23,,689.686,107.517,1.08182,108.182,108.969
699.726,836.723,920.912,,699.726,793.442,867.434,,699.726,105.455,1.06165,106.165,107.396
709.789,617.961,681.212,,709.789,609.751,660.452,,709.789,101.346,1.03143,103.143,104.613
719.876,456.286,498.621,,719.876,454.741,495.487,,719.876,100.34,1.00633,100.633,101.893
729.987,338.465,370.699,,729.987,359.991,387.199,,729.987,94.0204,0.957387,95.7387,98.0614
740.121,264.924,285.982,,740.121,300.205,312.262,,740.121,88.2477,0.915842,91.5842,94.0336
750.279,209.225,227.717,,750.279,248.84,263.198,,750.279,84.0801,0.865196,86.5196,88.7721
760.46,148.638,173.759,,760.46,204.293,221.999,,760.46,72.7573,0.782699,78.2699,82.4744
770.665,136.437,143.208,,770.665,193.588,199.951,,770.665,70.478,0.716214,71.6214,73.8037
780.894,118.132,124.466,,780.894,180.465,184.937,,780.894,65.4598,0.673015,67.3015,69.2051
791.146,97.333,102.871,,791.146,155.299,160.44,,791.146,62.6746,0.641179,64.1179,64.7333
801.421,86.805,88.1529,,801.421,149.967,149.915,,801.421,57.8827,0.58802,58.802,61.1981
811.72,76.939,78.7492,,811.72,146.042,147.85,,811.72,52.6828,0.53263,53.263,56.1473
822.042,71.621,73.71,,822.042,162.001,155.059,,822.042,44.2102,0.475367,47.5367,50.7699
832.387,65.494,67.2653,,832.387,212.616,200.136,,832.387,30.8039,0.336097,33.6097,40.7447
842.755,62.024,62.1237,,842.755,333.384,272.42,,842.755,18.6044,0.228044,22.8044,28.8514
853.147,68.589,71.6804,,853.147,694.657,589.044,,853.147,9.87379,0.121689,12.1689,17.0726
863.562,53.612,58.761,,863.562,925.745,874.019,,863.562,5.79123,0.0672308,6.72308,8.92985
874,40.942,41.6177,,874,1123.132,1046.42,,874,3.64534,0.0397715,3.97715,5.00812
884.461,38.145,38.6879,,884.461,1538.543,1420.4,,884.461,2.47929,0.0272373,2.72373,3.30403
894.946,41.411,41.8002,,894.946,1606.768,1632.49,,894.946,2.57729,0.0256052,2.56052,2.67004
905.453,46.742,44.522,,905.453,1162.273,1298.52,,905.453,4.0216,0.0342867,3.42867,2.91567
915.983,43.492,42.82,,915.983,779.347,876.084,,915.983,5.58057,0.0488766,4.88766,4.15756
926.537,35.164,39.519,,926.537,550.145,611.073,,926.537,6.39177,0.0646714,6.46714,5.89105
937.113,43.104,43.9092,,937.113,374.39,419.664,,937.113,11.5131,0.104629,10.4629,8.25426
947.712,41.949,40.0381,,947.712,287.625,308.57,,947.712,14.5846,0.129754,12.9754,11.5706
958.334,44.062,44.3281,,958.334,235.305,247.702,,958.334,18.7255,0.178958,17.8958,15.4184
968.979,42.441,42.5602,,968.979,219.156,221.753,,968.979,19.3657,0.191926,19.1926,18.8505
979.646,43.906,43.59,,979.646,223.994,219.881,,979.646,19.6014,0.198243,19.8243,19.1789
990.336,43.182,42.668,,990.336,255.455,246.471,,990.336,16.904,0.173115,17.3115,18.4307
1001.049,43.723,41.9713,,1001.049,300.356,287.985,,1001.049,14.5571,0.145741,14.5741,15.7263
1011.785,48.256,48.0202,,1011.785,367.422,339.365,,1011.785,13.1337,0.1415,14.15,14.5202
1022.543,56.144,53.678,,1022.543,499.288,463.801,,1022.543,11.2448,0.115735,11.5735,12.8567
1033.324,57.567,55.184,,1033.324,578.316,561.291,,1033.324,9.95425,0.0983163,9.83163,10.4757
1044.128,63.706,60.8636,,1044.128,590.776,587.997,,1044.128,10.7834,0.10351,10.351,9.98572
1054.954,81.47,73.9562,,1054.954,594.94,597.752,,1054.954,13.6938,0.123724,12.3724,11.2439
1065.802,115.584,105.675,,1065.802,567.258,573.583,,1065.802,20.3759,0.184236,18.4236,15.1487
1076.673,173.228,156.383,,1076.673,539.548,552.254,,1076.673,32.1061,0.283172,28.3172,23.2845
1087.567,241.766,220.205,,1087.567,514.169,524.895,,1087.567,47.0207,0.419523,41.9523,34.6444
1098.461,307.377,290.196,,1098.461,495.209,503.172,,1098.461,62.0702,0.576734,57.6734,49.9539
1109.207,342.334,331.451,,1109.207,467.849,473.81,,1109.207,73.1719,0.699545,69.9545,63.9597
1119.954,337.633,339.133,,1119.954,424.267,434.548,,1119.954,79.5803,0.780427,78.0427,74.2284
1130.7,316.275,321.868,,1130.7,393.187,403.106,,1130.7,80.4388,0.798471,79.8471,79.6736
1141.446,302.168,305.867,,1141.446,346.154,357.45,,1141.446,87.2929,0.85569,85.569,82.29
1152.192,267.857,274.491,,1152.192,303.532,316.029,,1152.192,88.2467,0.868562,86.8562,85.6129
1162.938,235.433,244.537,,1162.938,273.956,282.136,,1162.938,85.9383,0.866734,86.6734,86.536
1173.684,204.352,213.22,,1173.684,239.977,249.836,,1173.684,85.1548,0.853441,85.3441,86.1162
1184.43,182.89,187.852,,1184.43,215.417,222.34,,1184.43,84.9004,0.844889,84.4889,84.7383
1195.177,147.871,160.417,,1195.177,194.106,196.649,,1195.177,76.1805,0.815752,81.5752,84.037
1205.923,123.847,131.953,,1205.923,193.602,190.628,,1205.923,63.9699,0.6922,69.22,74.8783
1216.669,102.735,110.618,,1216.669,158.562,173.626,,1216.669,64.7917,0.637106,63.7106,64.3699
1227.415,77.822,88.5421,,1227.415,103.645,120.474,,1227.415,75.0851,0.734946,73.4946,67.4866
1238.161,59.576,67.3536,,1238.161,78.243,85.1732,,1238.161,76.1423,0.790785,79.0785,76.2047
1242.586,62.486,63.2035,,1242.586,64.806,76.3368,,1242.586,96.4201,0.827956,82.7956,