Folder: lasersafe_materials/public_html/data/backup (part 4)

File: makrolon-orange_red_326.csv
wavelength_nm,intensity,intensity_smoothed,,wavelength_nm2,intensity_i0,intensity_i0_smoothed,,wavelength_nm3,,transmission,transmission_perc,transmission_perc_smoothed
173.232,23.925,#N/A,,173.232,26.024,#N/A,,173.232,91.9344,#N/A,#N/A,#N/A
182.226,15.936,14.9614,,182.226,37.219,36.6837,,182.226,42.8168,0.407848,40.7848,#N/A
191.22,16.477,21.3578,,191.22,43.219,43.5829,,191.22,38.1244,0.49005,49.005,49.1497
200.214,16.381,18.3624,,200.214,38.487,42.1124,,200.214,42.5624,0.436034,43.6034,48.5967
209.208,17.558,18.0461,,209.208,40.21,41.34,,209.208,43.6658,0.43653,43.653,43.599
218.203,22.826,17.1488,,218.203,43.66,39.32,,218.203,52.2813,0.436134,43.6134,42.184
227.197,20.276,18.0667,,227.197,40.928,41.6867,,227.197,49.5407,0.433392,43.3392,44.4255
236.191,22.18,18.4059,,236.191,45.378,43.5585,,236.191,48.8783,0.422556,42.2556,41.1287
245.185,27.266,26.99,,245.185,68.191,61.595,,245.185,39.9847,0.438186,43.8186,45.6541
254.158,27.987,28.2641,,254.158,83.913,79.8665,,254.158,33.3524,0.353891,35.3891,38.4251
263.066,36.8,34.4007,,263.066,88.272,85.6838,,263.066,41.6893,0.401485,40.1485,36.3397
271.999,34.522,32.5555,,271.999,96.63,93.8624,,271.999,35.726,0.346842,34.6842,37.9635
280.958,30.061,28.3835,,280.958,90.533,89.5566,,280.958,33.2045,0.316934,31.6934,33.3054
289.943,30.237,31.2607,,289.943,90.255,90.6136,,289.943,33.5017,0.34499,34.499,35.2206
298.952,34.322,33.6915,,298.952,95.431,93.5602,,298.952,35.9653,0.360105,36.0105,34.0283
307.987,28.133,28.5883,,307.987,92.334,89.9978,,307.987,30.4687,0.317656,31.7656,34.0747
317.047,34.945,34.5022,,317.047,95.055,94.2753,,317.047,36.7629,0.365973,36.5973,34.7576
326.132,25.392,27.6909,,326.132,94.958,93.6745,,326.132,26.7402,0.295608,29.5608,33.582
335.243,29.022,27.4954,,335.243,101.496,98.891,,335.243,28.5942,0.278038,27.8038,29.3463
344.379,36.105,35.0242,,344.379,104.217,100.503,,344.379,34.6441,0.34849,34.849,31.4087
353.539,30.032,32.4199,,353.539,106.567,104.59,,353.539,28.1813,0.309971,30.9971,32.1036
362.725,35.563,36.6732,,362.725,115.754,112.854,,362.725,30.7229,0.324961,32.4961,30.3446
371.936,36.246,34.6519,,371.936,123.06,119.205,,371.936,29.4539,0.290692,29.0692,30.12
381.171,36.679,35.7604,,381.171,137.525,133.26,,381.171,26.6708,0.268351,26.8351,28.9532
390.432,32.653,32.4496,,390.432,150.717,144.106,,390.432,21.6651,0.225178,22.5178,24.4005
399.718,46.214,45.0416,,399.718,272.022,218.252,,399.718,16.9891,0.206374,20.6374,22.2122
409.028,50.397,47.646,,409.028,1208.244,808.398,,409.028,4.17109,0.0589388,5.89388,12.4079
418.364,72.455,66.0285,,418.364,6479.905,4361.01,,418.364,1.11815,0.0151406,1.51406,3.11899
427.724,71.593,74.3906,,427.724,23830.084,17724.6,,427.724,0.300431,0.00419703,0.419703,0.84602
437.108,63.371,68.4953,,437.108,56269.108,46051.4,,437.108,0.112621,0.00148737,0.148737,0.257073
446.518,44.349,53.929,,446.518,60380.834,61991.5,,446.518,0.0734488,0.000869942,0.0869942,0.106543
455.952,41.587,42.6268,,455.952,26403.844,35592,,455.952,0.157504,0.00119765,0.119765,0.08999
465.411,33.708,34.0662,,465.411,11596.916,15200.4,,465.411,0.290663,0.00224114,0.224114,0.162976
474.895,29.522,33.5056,,474.895,6015.105,7261.93,,474.895,0.490798,0.00461387,0.461387,0.347923
484.403,34.738,33.8994,,484.403,4613.299,4880.49,,484.403,0.752997,0.00694591,0.694591,0.574798
493.936,36.018,36.5657,,493.936,6134.021,5491.74,,493.936,0.587184,0.00665832,0.665832,0.730716
503.493,34.429,37.9543,,503.493,10106.778,8836.5,,503.493,0.340653,0.00429517,0.429517,0.540098
513.074,40.653,35.3058,,513.074,14446.963,13216.5,,513.074,0.281395,0.00267135,0.267135,0.327517
522.681,40.408,40.4001,,522.681,17402.064,16648.3,,522.681,0.232202,0.00242667,0.242667,0.258619
532.311,55,51.1966,,532.311,18380.58,18221.8,,532.311,0.299229,0.00280964,0.280964,0.257697
541.966,118.86,97.1321,,541.966,18090.567,18218.8,,541.966,0.657027,0.00533141,0.533141,0.382429
551.645,253.509,203.431,,551.645,17389.423,17628.1,,551.645,1.45783,0.0115402,1.15402,0.801702
561.348,630.633,491.03,,561.348,16250.673,16589.7,,561.348,3.88066,0.0295985,2.95985,1.90583
571.076,1702.05,1309.54,,571.076,14842.811,15280.2,,571.076,11.4672,0.0857017,8.57017,5.28615
580.828,3975.798,3229.2,,580.828,13316.289,13768.3,,580.828,29.8567,0.234539,23.4539,15.1362
590.604,6730.467,5961.36,,590.604,11676.05,12159.6,,590.604,57.6434,0.490259,49.0259,35.6715
600.404,8340.343,7980.39,,600.404,9996.849,10502.9,,600.404,83.4297,0.759829,75.9829,62.8365
610.229,8228.958,8339.01,,610.229,8324.554,8809.51,,610.229,98.8516,0.946591,94.6591,86.1368
620.077,7182.409,7516.82,,620.077,6734.089,7201.65,,620.077,106.657,1.04376,104.376,99.9651
629.949,5853.623,6239.27,,629.949,5317.543,5729.63,,629.949,110.081,1.08895,108.895,106.798
639.846,4675.756,5021.57,,639.846,4218.878,4532.11,,639.846,110.829,1.108,110.8,110.142
649.766,3629.849,3926.25,,649.766,3271.211,3533.54,,649.766,110.963,1.11114,111.114,110.883
659.71,2759.348,2999.44,,659.71,2492.87,2714.3,,659.71,110.69,1.10505,110.505,110.743
669.678,2064.73,2255.78,,669.678,1873.849,2048.16,,669.678,110.187,1.10137,110.137,110.477
679.67,1522.763,1674.97,,679.67,1407.015,1539.76,,679.67,108.226,1.08781,108.781,109.546
689.686,1117.298,1226.09,,689.686,1055.543,1148.23,,689.686,105.851,1.06781,106.781,107.992
699.726,827.832,907.159,,699.726,793.442,867.434,,699.726,104.334,1.0458,104.58,105.553
709.789,607.394,666.046,,709.789,609.751,660.452,,709.789,99.6134,1.00847,100.847,103.085
719.876,431.639,480.55,,719.876,454.741,495.487,,719.876,94.9197,0.969853,96.9853,99.1842
729.987,321.778,352.025,,729.987,359.991,387.199,,729.987,89.385,0.909158,90.9158,93.7628
740.121,253.187,271.377,,740.121,300.205,312.262,,740.121,84.338,0.869069,86.9069,89.1285
750.279,197.453,211.078,,750.279,248.84,263.198,,750.279,79.3494,0.801974,80.1974,83.7079
760.46,138.933,158.272,,760.46,204.293,221.999,,760.46,68.0067,0.712938,71.2938,76.3947
770.665,126.879,130.477,,770.665,193.588,199.951,,770.665,65.5407,0.652541,65.2541,67.14
780.894,96.59,105.462,,780.894,180.465,184.937,,780.894,53.5228,0.570258,57.0258,62.2482
791.146,87.858,88.5158,,791.146,155.299,160.44,,791.146,56.5734,0.551706,55.1706,55.4333
801.421,77.905,79.1809,,801.421,149.967,149.915,,801.421,51.9481,0.528173,52.8173,53.9057
811.72,68.104,71.1012,,811.72,146.042,147.85,,811.72,46.6332,0.480902,48.0902,49.4273
822.042,65.522,62.6624,,822.042,162.001,155.059,,822.042,40.4454,0.404119,40.4119,44.0432
832.387,53.729,58.9782,,832.387,212.616,200.136,,832.387,25.2704,0.294691,29.4691,35.5224
842.755,56.881,51.3213,,842.755,333.384,272.42,,842.755,17.0617,0.188391,18.8391,23.2821
853.147,58.654,58.2877,,853.147,694.657,589.044,,853.147,8.44359,0.0989532,9.89532,14.3671
863.562,41.324,48.8837,,863.562,925.745,874.019,,863.562,4.46386,0.0559298,5.59298,7.40338
874,33.092,36.0237,,874,1123.132,1046.42,,874,2.9464,0.0344256,3.44256,4.3911
884.461,34.337,34.2006,,884.461,1538.543,1420.4,,884.461,2.23179,0.0240781,2.40781,2.84153
894.946,38.178,35.2493,,894.946,1606.768,1632.49,,894.946,2.37607,0.0215924,2.15924,2.13758
905.453,33.08,32.1705,,905.453,1162.273,1298.52,,905.453,2.84615,0.0247747,2.47747,2.3322
915.983,36.215,38.4626,,915.983,779.347,876.084,,915.983,4.64684,0.0439029,4.39029,3.55393
926.537,38.916,34.4964,,926.537,550.145,611.073,,926.537,7.07377,0.0564523,5.64523,4.94246
937.113,32.335,34.7216,,937.113,374.39,419.664,,937.113,8.63672,0.0827368,8.27368,7.13036
947.712,23.744,29.0619,,947.712,287.625,308.57,,947.712,8.25519,0.0941827,9.41827,9.13209
958.334,36.87,34.724,,958.334,235.305,247.702,,958.334,15.669,0.140185,14.0185,11.5357
968.979,38.62,36.0877,,968.979,219.156,221.753,,968.979,17.6222,0.162739,16.2739,15.1755
979.646,36.903,34.5955,,979.646,223.994,219.881,,979.646,16.475,0.157337,15.7337,15.8784
990.336,31.262,34.8532,,990.336,255.455,246.471,,990.336,12.2378,0.141409,14.1409,15.4133
1001.049,40.514,38.1634,,1001.049,300.356,287.985,,1001.049,13.4887,0.132519,13.2519,12.9421
1011.785,38.386,36.1423,,1011.785,367.422,339.365,,1011.785,10.4474,0.1065,10.65,12.0631
1022.543,43.419,40.7313,,1022.543,499.288,463.801,,1022.543,8.69618,0.0878205,8.78205,9.73272
1033.324,34.887,37.6925,,1033.324,578.316,561.291,,1033.324,6.03252,0.0671532,6.71532,7.92318
1044.128,39.785,39.0076,,1044.128,590.776,587.997,,1044.128,6.73436,0.0663398,6.63398,6.18427
1054.954,26.839,33.1508,,1054.954,594.94,597.752,,1054.954,4.51121,0.0554592,5.54592,6.33221
1065.802,29.593,31.138,,1065.802,567.258,573.583,,1065.802,5.21685,0.0542868,5.42868,5.51176
1076.673,35.224,31.7241,,1076.673,539.548,552.254,,1076.673,6.52843,0.0574447,5.74447,5.70771
1087.567,25.367,25.8051,,1087.567,514.169,524.895,,1087.567,4.93359,0.0491624,4.91624,5.53993
1098.461,24.382,27.9736,,1098.461,495.209,503.172,,1098.461,4.92358,0.0555946,5.55946,5.18713
1109.207,22.266,22.1619,,1109.207,467.849,473.81,,1109.207,4.75923,0.0467737,4.67737,4.99731
1119.954,26.653,26.0602,,1119.954,424.267,434.548,,1119.954,6.28213,0.059971,5.9971,5.5282
1130.7,32.449,32.0237,,1130.7,393.187,403.106,,1130.7,8.25282,0.0794424,7.94424,6.84016
1141.446,43.38,37.6769,,1141.446,346.154,357.45,,1141.446,12.532,0.105405,10.5405,9.00885
1152.192,58.082,52.2098,,1152.192,303.532,316.029,,1152.192,19.1354,0.165206,16.5206,13.4054
1162.938,71.828,68.51,,1162.938,273.956,282.136,,1162.938,26.2188,0.242826,24.2826,20.2536
1173.684,86.35,84.2019,,1173.684,239.977,249.836,,1173.684,35.9826,0.337028,33.7028,28.078
1184.43,97.381,93.79,,1184.43,215.417,222.34,,1184.43,45.2058,0.421833,42.1833,38.0539
1195.177,94.658,93.9219,,1195.177,194.106,196.649,,1195.177,48.7661,0.477613,47.7613,45.1545
1205.923,91.106,94.3077,,1205.923,193.602,190.628,,1205.923,47.0584,0.494721,49.4721,49.122
1216.669,80.563,82.942,,1216.669,158.562,173.626,,1216.669,50.8085,0.477706,47.7706,47.6546
1227.415,64.781,70.8401,,1227.415,103.645,120.474,,1227.415,62.5028,0.58801,58.801,52.2331
1238.161,48.337,53.0732,,1238.161,78.243,85.1732,,1238.161,61.7781,0.623121,62.3121,61.96
1242.586,38.054,48.4378,,1242.586,64.806,76.3368,,1242.586,58.7199,0.634528,63.4528,

File: makrolon-red_324.csv
wavelength_nm,intensity,intensity_smoothed,,wavelength_nm2,intensity_i0,intensity_i0_smoothed,,wavelength_nm3,,transmission,transmission_perc,transmission_perc_smoothed
173.232,15.215,#N/A,,173.232,26.024,#N/A,,173.232,58.4653,#N/A,#N/A,#N/A
181.961,20.347,17.9994,,181.961,36.764,36.6747,,181.961,55.3449,0.490785,49.0785,#N/A
190.691,26.615,21.2279,,190.691,42.855,43.6302,,190.691,62.1048,0.486542,48.6542,47.1518
199.421,17.519,21.5097,,199.421,39.488,43.3364,,199.421,44.3654,0.496342,49.6342,49.8685
208.15,20.15,20.8924,,208.15,41.483,41.388,,208.15,48.5741,0.504795,50.4795,47.7513
216.88,18.962,20.8219,,216.88,40.752,37.7489,,216.88,46.5302,0.55159,55.159,48.2596
225.609,14.411,17.0305,,225.609,40.838,42.2694,,225.609,35.2882,0.402903,40.2903,46.8857
234.339,22.86,21.7136,,234.339,42.197,41.7141,,234.339,54.1745,0.520533,52.0533,45.5105
243.069,25.672,24.567,,243.069,61.92,57.6131,,243.069,41.4599,0.426414,42.6414,46.9337
251.798,30.484,30.918,,251.798,81.096,75.645,,251.798,37.59,0.408725,40.8725,42.5344
260.443,31.842,38.6159,,260.443,84.273,85.8128,,260.443,37.7843,0.450002,45.0002,45.2674
269.106,32.381,32.9058,,269.106,91.995,89.8291,,269.106,35.1987,0.366315,36.6315,38.418
277.794,35.374,37.2984,,277.794,86.172,89.0849,,277.794,41.0505,0.418684,41.8684,38.5317
286.505,42.731,38.9701,,286.505,92.075,91.6835,,286.505,46.4089,0.42505,42.505,40.5667
295.239,33.269,37.2695,,295.239,91.07,90.4104,,295.239,36.5312,0.412227,41.2227,44.4123
303.998,35.807,36.5291,,303.998,87.246,90.1977,,303.998,41.0414,0.40499,40.499,39.6082
312.78,33.163,35.9299,,312.78,91.149,90.927,,312.78,36.3833,0.395151,39.5151,41.043
321.587,38.792,38.5024,,321.587,90.506,94.8627,,321.587,42.8612,0.405875,40.5875,37.1644
330.417,45.057,41.6482,,330.417,99.682,99.6722,,330.417,45.2007,0.417852,41.7852,42.3891
339.27,41.321,38.9482,,339.27,102.857,102.251,,339.27,40.1733,0.380908,38.0908,37.1995
348.148,41.601,40.8504,,348.148,98.432,100.578,,348.148,42.2637,0.406158,40.6158,38.694
357.048,36.101,42.0082,,357.048,110.673,111.077,,357.048,32.6195,0.37819,37.819,40.0333
365.973,40.53,41.3363,,365.973,117.974,113.887,,365.973,34.355,0.36296,36.296,35.4983
374.921,46.945,45.573,,374.921,124.917,123.966,,374.921,37.581,0.367625,36.7625,36.3587
383.893,46.646,46.038,,383.893,144.53,139.532,,383.893,32.2743,0.329945,32.9945,34.4393
392.888,54.38,45.4466,,392.888,159.146,150.069,,392.888,34.1699,0.302837,30.2837,30.9236
401.906,117.117,86.4192,,401.906,365.612,272.868,,401.906,32.0331,0.316707,31.6707,31.0506
410.948,525.848,352.572,,410.948,1718.765,1137.94,,410.948,30.5945,0.309835,30.9835,31.443
420.014,2231.831,1587.9,,420.014,8451.974,5767.44,,420.014,26.406,0.275322,27.5322,29.5506
429.102,5631.563,4555.7,,429.102,27693.477,20911.9,,429.102,20.3353,0.217852,21.7852,24.8169
438.214,9075.327,8106.73,,438.214,59961.765,50102.5,,438.214,15.1352,0.161803,16.1803,18.9214
447.35,6628.456,8011.4,,447.35,58648.948,61401.1,,447.35,11.3019,0.130477,13.0477,14.8162
456.508,1893.501,2953.98,,456.508,25021.545,33775.7,,456.508,7.56748,0.0874587,8.74587,10.7315
465.69,642.297,939.312,,465.69,11319.434,14840,,465.69,5.67429,0.0632958,6.32958,7.49821
474.895,286.467,364.293,,474.895,6015.105,7261.93,,474.895,4.76246,0.0501648,5.01648,5.6287
484.123,206.948,224.209,,484.123,4621.49,4909.27,,484.123,4.47795,0.0456706,4.56706,4.73192
493.374,238.476,222.705,,493.374,5966.336,5370.01,,493.374,3.99703,0.0414721,4.14721,4.39044
502.649,337.347,307.042,,502.649,9690.467,8462.61,,502.649,3.48123,0.0362822,3.62822,3.9011
511.946,490.513,437.111,,511.946,13989.8,12712.6,,511.946,3.50622,0.034384,3.4384,3.4814
521.266,801.751,694.004,,521.266,17073.244,16252.6,,521.266,4.69595,0.0427011,4.27011,3.76738
530.61,1256.726,1111.28,,530.61,18349.066,18088.8,,530.61,6.84899,0.0614347,6.14347,5.10507
539.976,1694.906,1563.27,,539.976,18207.698,18295.5,,539.976,9.30873,0.0854453,8.54453,7.29667
549.365,2128.309,1985.33,,549.365,17602.812,17792,,549.365,12.0907,0.111586,11.1586,9.76719
558.777,2893.456,2629.58,,558.777,16563.829,16897,,558.777,17.4685,0.155624,15.5624,13.0813
568.212,4312.362,3839.45,,568.212,15289.892,15695.3,,568.212,28.204,0.244625,24.4625,19.4566
577.67,6229.345,5633.91,,577.67,13819.921,14244.9,,577.67,45.0751,0.395504,39.5504,31.3293
587.151,8056.43,7522.64,,587.151,12274.337,12748.5,,587.151,65.6364,0.590081,59.0081,48.7343
596.654,9139.817,8878.01,,596.654,10648.129,11148.2,,596.654,85.835,0.796361,79.6361,69.1637
606.18,9044.757,9150.17,,606.18,8998.253,9504.26,,606.18,100.517,0.962744,96.2744,88.2374
615.729,8020.162,8377.21,,615.729,7428.717,7899.72,,615.729,107.962,1.06044,106.044,101.572
625.3,6650.34,7048.09,,625.3,5982.617,6408.95,,625.3,111.161,1.09972,109.972,108.219
634.895,5347.276,5730.7,,634.895,4752.181,5094.9,,634.895,112.523,1.12479,112.479,111.492
644.511,4236.335,4565.35,,644.511,3747.632,4044.47,,644.511,113.04,1.12879,112.879,112.733
654.15,3301.811,3577.33,,654.15,2908.335,3155.05,,654.15,113.529,1.13385,113.385,113.235
663.812,2528.864,2763.26,,663.812,2218.324,2414.55,,663.812,113.999,1.14442,114.442,113.731
673.496,1914.358,2089.94,,673.496,1690.913,1837.31,,673.496,113.214,1.1375,113.75,114.117
683.203,1432.807,1569.65,,683.203,1270.438,1392.78,,683.203,112.781,1.12699,112.699,113.317
692.932,1060.072,1161.24,,692.932,962.917,1048.75,,692.932,110.09,1.10726,110.726,112.082
702.683,790.298,873.319,,702.683,735.844,798.529,,702.683,107.4,1.09366,109.366,109.92
712.457,582.534,643.592,,712.457,560.959,614.698,,712.457,103.846,1.047,104.7,107.002
722.253,425.528,467.541,,722.253,433.589,465.805,,722.253,98.1409,1.00373,100.373,102.859
732.071,328.759,355.277,,732.071,342.863,368.104,,732.071,95.8864,0.965153,96.5153,97.8709
741.912,259.519,277.876,,741.912,291.744,304.649,,741.912,88.9544,0.91212,91.212,94.3334
751.775,201.219,217.107,,751.775,245.16,256.03,,751.775,82.0766,0.847974,84.7974,87.8101
761.66,142.757,159.934,,761.66,201.389,215.524,,761.66,70.8862,0.742071,74.2071,79.6756
771.567,137.453,142.662,,771.567,195.038,198.428,,771.567,70.475,0.718959,71.8959,72.3577
781.496,110.961,116.885,,781.496,182.302,184.116,,781.496,60.8666,0.634846,63.4846,68.1937
791.448,100.913,103.621,,791.448,152.915,159.926,,791.448,65.9929,0.647931,64.7931,62.6508
801.421,79.961,86.482,,801.421,149.967,149.915,,801.421,53.3191,0.576874,57.6874,61.39
811.416,81.984,81.6228,,811.416,146.293,148.023,,811.416,56.041,0.55142,55.142,55.1754
821.434,80.529,78.4294,,821.434,160.59,153.76,,821.434,50.1457,0.510076,51.0076,52.1606
831.473,96.704,89.4736,,831.473,212.839,194.955,,831.473,45.4353,0.458944,45.8944,48.2955
841.534,109.444,100.972,,841.534,297.21,252.039,,841.534,36.8238,0.400619,40.0619,43.6481
851.617,195.946,173.188,,851.617,642.972,535.673,,851.617,30.475,0.323309,32.3309,35.2628
861.722,221.526,220.593,,861.722,901.718,838.777,,861.722,24.5671,0.262994,26.2994,29.3352
871.849,219.148,219.648,,871.849,1056.668,1000.87,,871.849,20.7395,0.219457,21.9457,24.037
881.998,244.286,237.587,,881.998,1448.726,1322.97,,881.998,16.8621,0.179587,17.9587,20.0288
892.168,234.358,240.558,,892.168,1654.916,1627.2,,892.168,14.1613,0.147836,14.7836,16.2792
902.36,163.275,189.572,,902.36,1309.575,1428.54,,902.36,12.4678,0.132703,13.2703,14.0247
912.574,109.59,125.756,,912.574,875.017,996.597,,912.574,12.5243,0.126186,12.6186,12.6654
922.809,79.459,87.5406,,922.809,619.64,688.405,,922.809,12.8234,0.127164,12.7164,12.5071
933.066,60.5,64.5027,,933.066,425.8,483.781,,933.066,14.2085,0.13333,13.333,12.6654
943.345,53.804,52.3849,,943.345,316.861,346.834,,943.345,16.9803,0.151037,15.1037,14.0568
953.645,42.005,45.6229,,953.645,253.004,268.664,,953.645,16.6025,0.169814,16.9814,16.4237
963.966,42.103,45.1424,,963.966,221.773,231.494,,963.966,18.9847,0.195005,19.5005,18.3756
974.31,41.55,43.1709,,974.31,216.895,219.711,,974.31,19.1567,0.19649,19.649,19.6318
984.674,41.528,44.5145,,984.674,236.549,229.468,,984.674,17.5558,0.19399,19.399,19.4242
995.06,55.125,51.4201,,995.06,275.555,262.079,,995.06,20.0051,0.196201,19.6201,19.106
1005.467,46.613,47.5067,,1005.467,307,300.576,,1005.467,15.1834,0.158052,15.8052,18.1626
1015.896,54.354,51.7844,,1015.896,419.611,382.98,,1015.896,12.9534,0.135214,13.5214,14.7189
1026.346,58.255,56.4135,,1026.346,534.477,503.672,,1026.346,10.8994,0.112004,11.2004,12.5132
1036.817,62.949,60.7753,,1036.817,588.232,576.536,,1036.817,10.7014,0.105415,10.5415,10.8214
1047.31,73.708,71.1486,,1047.31,593.602,592.642,,1047.31,12.4171,0.120053,12.0053,11.2118
1057.823,76.437,71.2974,,1057.823,584.222,594.176,,1057.823,13.0836,0.119994,11.9994,11.8426
1068.358,70.224,75.5703,,1068.358,562.907,568.823,,1068.358,12.4752,0.132854,13.2854,12.7741
1078.914,78.068,76.8965,,1078.914,535.563,543.523,,1078.914,14.5768,0.141478,14.1478,13.3797
1089.491,73.691,74.8943,,1089.491,513.644,519.697,,1089.491,14.3467,0.144111,14.4111,14.4257
1100.042,83.909,80.7766,,1100.042,490.055,498.834,,1100.042,17.1224,0.161931,16.1931,15.1315
1110.472,86.264,80.066,,1110.472,464.157,470.658,,1110.472,18.5851,0.170115,17.0115,16.2305
1120.902,86.481,84.34,,1120.902,422.403,431.806,,1120.902,20.4736,0.195319,19.5319,18.3798
1131.332,87.647,90.1191,,1131.332,388.972,400.892,,1131.332,22.533,0.224796,22.4796,20.9749
1141.762,98.489,93.8274,,1141.762,345.773,356.321,,1141.762,28.4837,0.263323,26.3323,23.8329
1152.192,114.096,108.079,,1152.192,303.532,316.029,,1152.192,37.5894,0.34199,34.199,29.929
1162.622,119.743,117.852,,1162.622,273.885,283.053,,1162.622,43.7202,0.416362,41.6362,37.6978
1173.052,120.888,119.068,,1173.052,243.292,251.711,,1173.052,49.6884,0.473036,47.3036,44.4839
1183.482,129.718,126.657,,1183.482,216.211,224.618,,1183.482,59.996,0.563878,56.3878,51.8894
1193.912,118.246,122.066,,1193.912,193.288,198.451,,1193.912,61.1761,0.615094,61.5094,59.2579
1204.342,102.032,107.588,,1204.342,190.807,189.376,,1204.342,53.4739,0.568117,56.8117,60.4374
1214.773,95.279,100.132,,1214.773,172.877,180.133,,1214.773,55.1138,0.555878,55.5878,55.2872
1225.203,78.558,80.5932,,1225.203,115.519,133.854,,1225.203,68.0044,0.602098,60.2098,55.898
1235.633,50.811,58.9314,,1235.633,83.394,91.0368,,1235.633,60.9288,0.647336,64.7336,65.1262
1242.586,48.132,49.4229,,1242.586,64.806,76.3368,,1242.586,74.2709,0.647432,64.7432,