Folder: lasersafe_materials/public_html/data/backup (part 12)

File: schreiberglass-Hell_Kupferblau_7881.csv
wavelength_nm,intensity,intensity_smoothed,,wavelength_nm2,intensity_i0,intensity_i0_smoothed,,wavelength_nm3,,transmission,transmission_perc,transmission_perc_smoothed
173.232,27.939,#N/A,,173.232,19.372,#N/A,,173.232,144.224,#N/A,#N/A,#N/A
182.226,35.223,36.7429,,182.226,39.142,36.0714,,182.226,89.9877,1.01862,101.862,#N/A
191.22,31.492,32.4615,,191.22,32.595,32.9671,,191.22,96.616,0.984661,98.4661,100.134
200.214,31.851,35.0056,,200.214,33.229,32.0517,,200.214,95.853,1.09216,109.216,105.24
209.208,33.756,34.4145,,209.208,42.499,40.6429,,209.208,79.4278,0.846754,84.6754,93.1536
218.203,36.115,33.1912,,218.203,39.86,36.9478,,218.203,90.6046,0.898328,89.8328,87.6339
227.197,37.837,35.293,,227.197,41.039,34.9444,,227.197,92.1977,1.00998,100.998,97.5691
236.191,42.923,39.2285,,236.191,38.855,38.0541,,236.191,110.47,1.03086,103.086,96.6711
245.185,51.646,46.1463,,245.185,60.852,56.5664,,245.185,84.8715,0.815791,81.5791,89.6026
254.158,52.913,56.8894,,254.158,81.031,74.5507,,254.158,65.2997,0.763098,76.3098,81.1069
263.066,64.453,62.1864,,263.066,84.028,82.2669,,263.066,76.7042,0.755911,75.5911,75.2398
271.999,63.994,60.3745,,271.999,87.661,85.1956,,271.999,73.0017,0.708657,70.8657,75.0842
280.958,63.624,63.1335,,280.958,82.385,83.2013,,280.958,77.2277,0.758805,75.8805,74.9529
289.943,60.8,59.0633,,289.943,81.564,82.6769,,289.943,74.5427,0.714387,71.4387,73.0119
298.952,67.613,64.8363,,298.952,81.833,83.2325,,298.952,82.6231,0.778978,77.8978,75.2634
307.987,55.607,60.6564,,307.987,76.557,83.2263,,307.987,72.6348,0.728812,72.8812,78.3086
317.047,64.51,63.6019,,317.047,90.917,88.1309,,317.047,70.9548,0.721676,72.1676,74.3037
326.132,63.685,65.1031,,326.132,83.823,84.635,,326.132,75.9756,0.769222,76.9222,74.0501
335.243,68.587,68.2493,,335.243,85.728,84.8491,,335.243,80.0054,0.804361,80.4361,77.4135
344.379,74.762,73.6371,,344.379,90.361,88.9045,,344.379,82.737,0.828272,82.8272,80.0247
353.539,75.205,74.6678,,353.539,94.915,90.7212,,353.539,79.2341,0.823047,82.3047,80.7004
362.725,91.593,84.0759,,362.725,105.458,101.011,,362.725,86.8526,0.832347,83.2347,81.5426
371.936,91.828,86.6419,,371.936,109.783,107.973,,371.936,83.645,0.802438,80.2438,83.7269
381.171,100.127,101.162,,381.171,115.883,116.945,,381.171,86.4035,0.865046,86.5046,84.8659
390.432,122.125,114.709,,390.432,133.324,125.547,,390.432,91.6002,0.913674,91.3674,87.851
399.718,265.575,205.246,,399.718,271.618,209.861,,399.718,97.7752,0.978007,97.8007,95.1033
409.028,1155.784,778.184,,409.028,1127.772,761.961,,409.028,102.484,1.02129,102.129,99.9303
418.364,6032.449,4081.68,,418.364,5969.824,4031.16,,418.364,101.049,1.01253,101.253,101.795
427.724,22202.609,16513.9,,427.724,22181.078,16466.7,,427.724,100.097,1.00287,100.287,100.707
437.108,52984.207,43157.9,,437.108,53431.878,43460.3,,437.108,99.1622,0.993041,99.3041,99.7847
446.518,58970.922,60765.5,,446.518,58872.93,60832.2,,446.518,100.166,0.998904,99.8904,99.4903
455.952,25120.835,34007.9,,455.952,24818.261,33641.5,,455.952,101.219,1.01089,101.089,100.524
465.411,10938.088,14398.4,,465.411,10918.096,14323.3,,465.411,100.183,1.00525,100.525,100.941
474.895,5542.717,6745.25,,474.895,5687.357,6851.23,,474.895,97.4568,0.984531,98.4531,99.7181
484.403,4098.572,4392.13,,484.403,4392.566,4623.26,,484.403,93.307,0.950008,95.0008,96.9071
493.936,5199.993,4719.22,,493.936,5936.261,5285.32,,493.936,87.5971,0.892892,89.2892,92.2295
503.493,8140.162,7225.95,,503.493,9922.655,8660.58,,503.493,82.0361,0.834349,83.4349,86.3537
513.074,10915.81,10160.6,,513.074,14396.412,13119.2,,513.074,75.8231,0.774488,77.4488,80.4521
522.681,12107.225,11886.1,,522.681,17479.123,16689.3,,522.681,69.2668,0.712198,71.2198,74.383
532.311,11796.285,11979.9,,532.311,18600.635,18407,,532.311,63.4187,0.650833,65.0833,68.0596
541.966,10870.691,11153.2,,541.966,18427.819,18537.4,,541.966,58.9907,0.601658,60.1658,62.5207
551.645,9824.172,10153.8,,551.645,17788.82,18021.6,,551.645,55.2267,0.563422,56.3422,58.2513
561.348,8267.177,8749.25,,561.348,16724.541,17056.8,,561.348,49.4314,0.512949,51.2949,53.9834
571.076,6379.923,6949.51,,571.076,15394.578,15806.8,,571.076,41.4427,0.439652,43.9652,47.7673
580.828,4637.508,5136.91,,580.828,13821.505,14293.2,,580.828,33.5528,0.359394,35.9394,39.9524
590.604,3286.088,3640.6,,590.604,12169.884,12655.7,,590.604,27.0018,0.287664,28.7664,32.1631
600.404,2409.436,2649.05,,600.404,10382.228,10916.7,,600.404,23.2073,0.24266,24.266,26.3565
610.229,1720.56,1910.3,,610.229,8596.69,9116.15,,610.229,20.0142,0.209551,20.9551,22.5721
620.077,1198.837,1343.39,,620.077,6975.767,7436.56,,620.077,17.1857,0.180647,18.0647,19.5406
629.949,801.4,913.309,,629.949,5497.842,5923.01,,629.949,14.5766,0.154197,15.4197,16.7694
639.846,546.41,615.641,,639.846,4321.008,4660.02,,639.846,12.6454,0.132111,13.2111,14.2926
649.766,389.1,430.313,,649.766,3325.06,3607.88,,649.766,11.702,0.11927,11.927,12.5148
659.71,285.125,315.1,,659.71,2514.192,2739.29,,659.71,11.3406,0.11503,11.503,11.6618
669.678,220.144,235.217,,669.678,1870.294,2049.93,,669.678,11.7706,0.114744,11.4744,11.4205
679.67,174.64,187.913,,679.67,1395.385,1530.38,,679.67,12.5155,0.122788,12.2788,11.7789
689.686,153.416,158.406,,689.686,1030.916,1131.37,,689.686,14.8815,0.140013,14.0013,13.031
699.726,126.82,129.822,,699.726,764.473,838.303,,699.726,16.5892,0.154862,15.4862,14.6796
709.789,105.857,113.1,,709.789,577.389,628.873,,709.789,18.3337,0.179845,17.9845,16.8584
719.876,93.048,100.125,,719.876,428.379,473.778,,719.876,21.721,0.211333,21.1333,19.3729
729.987,89.064,90.3141,,729.987,333.968,355.893,,729.987,26.6684,0.253767,25.3767,23.1547
740.121,79.632,83.6203,,740.121,271.067,284.973,,740.121,29.3772,0.293432,29.3432,27.0378
750.279,81.983,83.5265,,750.279,223.903,238.327,,750.279,36.6154,0.35047,35.047,32.276
760.46,87.322,87.0549,,760.46,181.555,197.796,,760.46,48.0967,0.440124,44.0124,39.1815
770.665,83.5,84.4594,,770.665,174.177,175.286,,770.665,47.9397,0.481839,48.1839,47.8613
780.894,87.727,84.9854,,780.894,155.909,157.51,,780.894,56.2681,0.539557,53.9557,50.9541
791.146,80.053,78.1994,,791.146,143.836,141.983,,791.146,55.6557,0.550766,55.0766,56.3589
801.421,78.08,76.9967,,801.421,122.665,127.915,,801.421,63.653,0.601936,60.1936,58.2099
811.72,81.099,79.5723,,811.72,128,126.885,,811.72,63.3586,0.627121,62.7121,62.7815
822.042,106.121,100.747,,822.042,139.414,135.722,,822.042,76.1193,0.742306,74.2306,67.2575
832.387,150.379,139.781,,832.387,198.763,181.776,,832.387,75.6574,0.768971,76.8971,76.444
842.755,277.289,219.07,,842.755,318.202,257.623,,842.755,87.1424,0.850352,85.0352,79.1296
853.147,605.254,502.672,,853.147,680.258,570.882,,853.147,88.9742,0.880518,88.0518,86.0142
863.562,813.321,765.974,,863.562,914.45,865.153,,863.562,88.941,0.885363,88.5363,88.4404
874,1017.693,940.041,,874,1123.327,1042.42,,874,90.5963,0.901788,90.1788,89.3584
884.461,1396.468,1284.33,,884.461,1549.531,1429.21,,884.461,90.122,0.898623,89.8623,89.8377
894.946,1457.371,1485.52,,894.946,1601.912,1633.79,,894.946,90.977,0.909248,90.9248,90.5114
905.453,1056.807,1182.15,,905.453,1154.569,1291.93,,905.453,91.5326,0.915023,91.5023,91.1027
915.983,688.892,786.693,,915.983,763.633,866.24,,915.983,90.2124,0.90817,90.817,91.422
926.537,484.054,542.468,,926.537,538.752,601.135,,926.537,89.8473,0.902407,90.2407,90.6288
937.113,321.208,367.373,,937.113,371.776,416.575,,937.113,86.3983,0.881891,88.1891,89.3052
947.712,239.807,257.927,,947.712,281.795,301.161,,947.712,85.0998,0.856443,85.6443,86.097
958.334,188.214,198.149,,958.334,232.081,239.784,,958.334,81.0984,0.826363,82.6363,84.1412
968.979,169.701,174.474,,968.979,215.997,218.608,,968.979,78.5664,0.798115,79.8115,80.7227
979.646,171.539,169.272,,979.646,214.269,212.805,,979.646,80.0578,0.795432,79.5432,79.8044
990.336,197.637,188.182,,990.336,255.716,241.973,,990.336,77.2877,0.777696,77.7696,77.9197
1001.049,227.446,216.839,,1001.049,294.155,280.773,,1001.049,77.3218,0.772292,77.2292,77.4664
1011.785,274.058,255.714,,1011.785,372.129,345.901,,1011.785,73.646,0.739268,73.9268,75.7647
1022.543,363.833,338.899,,1022.543,511.912,472.99,,1022.543,71.0733,0.716503,71.6503,72.5873
1033.324,417.316,402.882,,1033.324,594.592,577.395,,1033.324,70.1853,0.697758,69.7758,70.6748
1044.128,407.776,410.994,,1044.128,615.351,612.954,,1044.128,66.2672,0.670514,67.0514,68.9095
1054.954,386.667,393.447,,1054.954,615.37,617.33,,1054.954,62.8349,0.637336,63.7336,65.4767
1065.802,360.44,369.449,,1065.802,591.191,598.552,,1065.802,60.9685,0.617237,61.7237,62.5087
1076.673,327.093,338.112,,1076.673,560.996,570.992,,1076.673,58.3058,0.592148,59.2148,60.5257
1087.567,309.896,317.28,,1087.567,529.782,540.523,,1087.567,58.495,0.586987,58.6987,59.0328
1098.461,290.846,298.749,,1098.461,506.368,516.098,,1098.461,57.4377,0.578861,57.8861,58.6636
1109.207,262.031,273.094,,1109.207,472.114,482.857,,1109.207,55.5016,0.565579,56.5579,57.5083
1119.954,242.176,247.191,,1119.954,442.11,453.073,,1119.954,54.7773,0.545588,54.5588,55.4318
1130.7,207.551,218.132,,1130.7,399.264,413.369,,1130.7,51.9834,0.527694,52.7694,53.7218
1141.446,176.336,188.848,,1141.446,355.303,369.536,,1141.446,49.6298,0.511041,51.1041,52.1598
1152.192,146.168,156.436,,1152.192,312.68,325.133,,1152.192,46.7468,0.481145,48.1145,49.6867
1162.938,122.229,124.667,,1162.938,272.396,284.362,,1162.938,44.8718,0.438411,43.8411,45.71
1173.684,98.613,105.449,,1173.684,232.816,247.141,,1173.684,42.3566,0.426675,42.6675,43.404
1184.43,85.963,88.6915,,1184.43,212.854,220.644,,1184.43,40.3859,0.401966,40.1966,41.5203
1195.177,83.379,83.5676,,1195.177,189.605,196.165,,1195.177,43.9751,0.426007,42.6007,41.1579
1205.923,98.239,93.7743,,1205.923,192.441,190.795,,1205.923,51.0489,0.491492,49.1492,44.9442
1216.669,75.289,87.693,,1216.669,160.555,172.299,,1216.669,46.893,0.508958,50.8958,50.9902
1227.415,38.917,48.7044,,1227.415,108.596,121.133,,1227.415,35.8365,0.402075,40.2075,46.673
1238.161,28.697,34.8147,,1238.161,81.216,91.0173,,1238.161,35.3342,0.382507,38.2507,38.1871
1242.586,25.639,29.8245,,1242.586,69.901,79.3938,,1242.586,36.679,0.375652,37.5652,

File: schreiberglass-Kobaltblau_7884.csv
wavelength_nm,intensity,intensity_smoothed,,wavelength_nm2,intensity_i0,intensity_i0_smoothed,,wavelength_nm3,,transmission,transmission_perc,transmission_perc_smoothed
173.232,21.748,#N/A,,173.232,19.372,#N/A,,173.232,112.265,#N/A,#N/A,#N/A
181.961,40.186,39.5456,,181.961,39.688,35.6696,,181.961,101.255,1.10866,110.866,#N/A
190.691,42.094,41.4938,,190.691,32.868,32.968,,190.691,128.07,1.25861,125.861,118.293
199.421,38.546,41.8763,,199.421,31.32,32.0819,,199.421,123.072,1.3053,130.53,123.987
208.15,36.818,42.2414,,208.15,45.317,38.5951,,208.15,81.2454,1.09448,109.448,123.116
216.88,39.18,38.677,,216.88,36.86,35.8001,,216.88,106.294,1.08036,108.036,102.723
225.609,44.269,43.038,,225.609,34.312,31.5492,,225.609,129.019,1.36415,136.415,118.218
234.339,46.449,43.3097,,234.339,39.219,37.2061,,234.339,118.435,1.16405,116.405,118.83
243.069,53.447,52.9497,,243.069,59.58,53.5018,,243.069,89.7063,0.989681,98.9681,112.295
251.798,58.082,57.707,,251.798,74.486,70.1188,,251.798,77.9771,0.822989,82.2989,91.1473
260.443,67.625,63.9921,,260.443,79.12,78.9297,,260.443,85.4714,0.810747,81.0747,80.18
269.106,71.714,71.0374,,269.106,83.208,83.0337,,269.106,86.1864,0.855525,85.5525,81.0142
277.794,66.167,68.6473,,277.794,84.114,81.9156,,277.794,78.6635,0.838024,83.8024,83.9839
286.505,76.165,76.0001,,286.505,81.929,85.3193,,286.505,92.9646,0.890773,89.0773,85.3384
295.239,74.163,76.7503,,295.239,88.835,84.634,,295.239,83.484,0.90685,90.685,91.0827
303.998,79.888,79.9282,,303.998,87.195,83.8042,,303.998,91.6199,0.953749,95.3749,90.7169
312.78,79.522,78.7396,,312.78,82.374,81.1504,,312.78,96.5377,0.970293,97.0293,95.5091
321.587,86.156,86.5081,,321.587,83.734,87.5099,,321.587,102.892,0.988552,98.8552,95.6647
330.417,96.608,92.7236,,330.417,85.821,86.6046,,330.417,112.569,1.07065,107.065,102.352
339.27,95.151,95.5487,,339.27,88.272,86.7717,,339.27,107.793,1.10115,110.115,110.955
348.148,114.644,107.978,,348.148,92.579,89.4024,,348.148,123.834,1.20778,120.778,114.98
357.048,127.855,124.472,,357.048,99.65,95.0671,,357.048,128.304,1.3093,130.93,126.492
365.973,160.239,150.918,,365.973,103.627,103.014,,365.973,154.631,1.46502,146.502,137.387
374.921,192.71,181.466,,374.921,108.238,107.211,,374.921,178.043,1.69261,169.261,155.877
383.893,223.528,217.5,,383.893,116.93,117.368,,383.893,191.164,1.85315,185.315,176.518
392.888,325.857,290.95,,392.888,145.835,132.624,,392.888,223.442,2.1938,219.38,198.173
401.906,754.906,572.214,,401.906,355.95,266.798,,401.906,212.082,2.14474,214.474,220.028
410.948,3121.824,2121.83,,410.948,1607.805,1068.2,,410.948,194.167,1.98636,198.636,207.63
420.014,14096.898,9755.42,,420.014,7809.094,5328.01,,420.014,180.519,1.83097,183.097,190.382
429.102,62552.807,50073.6,,429.102,25808.548,19452.9,,429.102,242.372,2.5741,257.41,203.62
438.214,64000,63500.2,,438.214,57208.443,47436.7,,438.214,111.872,1.33863,133.863,196.337
447.35,61649.181,62829.7,,447.35,56732.386,60107.4,,447.35,108.667,1.04529,104.529,112.64
456.508,34154.938,44680.2,,456.508,23524.272,31899.4,,456.508,145.19,1.40066,140.066,122.057
465.69,13835.85,18922.3,,465.69,10663.054,13982.8,,465.69,129.755,1.35326,135.326,139.634
474.895,6038.952,7887.11,,474.895,5687.357,6851.23,,474.895,106.182,1.1512,115.12,126.321
484.123,3596.342,4183.71,,484.123,4395.281,4648.59,,484.123,81.8228,0.899996,89.9996,102.925
493.374,3417.165,3368.67,,493.374,5767.024,5161.78,,493.374,59.2535,0.652618,65.2618,77.7701
502.649,4125.843,3931.89,,502.649,9517.395,8288.4,,502.649,43.3505,0.474384,47.4384,56.1235
511.946,4165.401,4178.58,,511.946,13902.87,12602.5,,511.946,29.9607,0.331569,33.1569,40.2449
521.266,3705.699,3878.2,,521.266,17140.791,16271.5,,521.266,21.6192,0.238343,23.8343,28.3654
530.61,3076.215,3241.1,,530.61,18560.774,18257.4,,530.61,16.5737,0.177522,17.7522,20.6322
539.976,3028.872,2995.59,,539.976,18550.811,18579.2,,539.976,16.3274,0.161233,16.1233,16.6275
549.365,3688.472,3460.06,,549.365,18001.624,18180.9,,549.365,20.4897,0.190312,19.0312,17.242
558.777,3981.845,3982.27,,558.777,17024.147,17349.4,,558.777,23.3894,0.229533,22.9533,21.1828
568.212,2873.84,3269.97,,568.212,15822.297,16208.1,,568.212,18.1632,0.20175,20.175,22.1669
577.67,1481.599,1874.08,,577.67,14345.547,14781.8,,577.67,10.3279,0.126783,12.6783,16.6123
587.151,700.443,895.25,,587.151,12774.55,13247.5,,587.151,5.48311,0.0675788,6.75788,9.53955
596.654,513.818,553.082,,596.654,11084.794,11584.1,,596.654,4.63534,0.0477449,4.77449,5.51536
606.18,470.007,484.637,,606.18,9317.927,9855.14,,606.18,5.04412,0.0491761,4.91761,4.79132
615.729,412.783,434.788,,615.729,7646.662,8140.66,,615.729,5.39821,0.0534094,5.34094,5.125
625.3,339.557,368.662,,625.3,6183.506,6601.85,,625.3,5.49133,0.0558422,5.58422,5.47992
634.895,237.994,265.236,,634.895,4900.765,5253.34,,634.895,4.85626,0.050489,5.0489,5.35181
644.511,200.15,212.76,,644.511,3830.993,4138.49,,644.511,5.22449,0.0514101,5.14101,5.03403
654.15,186.166,191.84,,654.15,2946.39,3206.86,,654.15,6.31844,0.0598216,5.98216,5.47675
663.812,199.221,192.765,,663.812,2235.186,2440.34,,663.812,8.91295,0.0789909,7.89909,6.81678
673.496,221.992,215.753,,673.496,1680.519,1832.89,,673.496,13.2097,0.117712,11.7712,9.61515
683.203,283.124,266.555,,683.203,1254.116,1371.04,,683.203,22.5756,0.194418,19.4418,15.0739
692.932,339.518,323.781,,692.932,938.84,1027.26,,692.932,36.1636,0.31519,31.519,24.9005
702.683,334.064,341.506,,702.683,703.713,770.784,,702.683,47.4716,0.443062,44.3062,38.0487
712.457,293.421,308.416,,712.457,535.449,583.869,,712.457,54.7991,0.528227,52.8227,48.4274
722.253,235.293,255.448,,722.253,394.064,437.544,,722.253,59.7093,0.583822,58.3822,55.4995
732.071,193.338,207.861,,732.071,315.024,340.203,,732.071,61.3725,0.61099,61.099,60.0632
741.912,168.15,171.938,,741.912,260.389,276.924,,741.912,64.5765,0.620886,62.0886,61.2351
751.775,144.59,151.408,,751.775,220.625,232.002,,751.775,65.5365,0.652616,65.2616,63.9045
761.66,142.353,141.667,,761.66,175.544,191.152,,761.66,81.0925,0.741123,74.1123,67.5851
771.567,133.359,138.377,,771.567,170.889,174.768,,771.567,78.0384,0.791776,79.1776,78.7988
781.496,124.132,125.935,,781.496,152.728,157.234,,781.496,81.2765,0.800939,80.0939,81.1352
791.448,113.089,112.065,,791.448,141.361,142.168,,791.448,80.0001,0.788259,78.8259,80.6888
801.421,98.908,103.319,,801.421,122.665,127.915,,801.421,80.6326,0.807713,80.7713,79.2891
811.416,104.556,102.118,,811.416,129.961,126.543,,811.416,80.4518,0.806982,80.6982,79.1932
821.434,131.839,120.041,,821.434,138.133,134.892,,821.434,95.4435,0.889911,88.9911,85.1536
831.473,202.455,181.624,,831.473,195.668,176.237,,831.473,103.469,1.03056,103.056,97.2208
841.534,343.012,268.684,,841.534,285.606,236.25,,841.534,120.1,1.13729,113.729,107.317
851.617,806.928,658.296,,851.617,619.823,518.711,,851.617,130.187,1.2691,126.91,121.192
861.722,1141.04,1060.62,,861.722,896.192,830.159,,861.722,127.321,1.27761,127.761,127.769
871.849,1348.766,1270.83,,871.849,1055.679,992.635,,871.849,127.763,1.28025,128.025,127.831
881.998,1810.492,1661.76,,881.998,1457.156,1327.87,,881.998,124.248,1.25145,125.145,126.68
892.168,2034.446,2013.82,,892.168,1657.649,1631.54,,892.168,122.731,1.23431,123.431,124.014
902.36,1535.284,1707.25,,902.36,1291.898,1428.56,,902.36,118.839,1.19508,119.508,121.732
912.574,974.95,1133.12,,912.574,871.197,990.84,,912.574,111.909,1.14359,114.359,117.443
922.809,632.729,728.596,,922.809,612.411,680.716,,922.809,103.318,1.07034,107.034,111.198
933.066,409.05,474.628,,933.066,425.348,477.003,,933.066,96.1683,0.995022,99.5022,103.331
943.345,268.732,308.019,,943.345,306.462,338.555,,943.345,87.6885,0.909805,90.9805,94.7254
953.645,187.229,209.312,,953.645,242.479,260.836,,953.645,77.2145,0.802466,80.2466,85.7526
963.966,147.358,163.914,,963.966,221.946,228.965,,963.966,66.3936,0.715894,71.5894,77.2702
974.31,138.392,139.484,,974.31,208.952,213.622,,974.31,66.2315,0.652949,65.2949,67.7894
984.674,130.695,133.553,,984.674,233.406,226.951,,984.674,55.9947,0.588465,58.8465,63.4289
995.06,130.265,131.638,,995.06,270.306,258.924,,995.06,48.1917,0.508403,50.8403,54.9987
1005.467,141.557,138.732,,1005.467,318.926,300.607,,1005.467,44.3855,0.461507,46.1507,48.7626
1015.896,155.752,145.632,,1015.896,420.082,386.276,,1015.896,37.0766,0.377016,37.7016,41.8847
1026.346,169.758,167.783,,1026.346,555.319,518.279,,1026.346,30.5695,0.323731,32.3731,35.1196
1036.817,155.757,161.243,,1036.817,599.091,590.118,,1036.817,25.9989,0.273239,27.3239,29.535
1047.31,142.84,147.217,,1047.31,620.668,614.548,,1047.31,23.0139,0.239553,23.9553,25.631
1057.823,127.731,133.874,,1057.823,615.324,615.94,,1057.823,20.7583,0.217349,21.7349,22.5102
1068.358,114.885,119.092,,1068.358,584.328,593.024,,1068.358,19.661,0.200822,20.0822,20.7151
1078.914,117.757,115.481,,1078.914,555.59,563.33,,1078.914,21.1949,0.204997,20.4997,20.3093
1089.491,120.98,122.021,,1089.491,525.288,534.659,,1089.491,23.0312,0.228223,22.8223,21.524
1100.042,127.009,122.275,,1100.042,501.059,511.609,,1100.042,25.3481,0.239,23.9,23.1708
1110.472,132.025,133.689,,1110.472,471.264,479.163,,1110.472,28.0151,0.279004,27.9004,25.825
1120.902,129.935,125.152,,1120.902,437.63,449.534,,1120.902,29.6906,0.278404,27.8404,27.7132
1131.332,116.012,120.053,,1131.332,398.519,410.715,,1131.332,29.1108,0.292303,29.2303,28.7233
1141.762,97.619,101.164,,1141.762,351.293,368.113,,1141.762,27.7885,0.274816,27.4816,28.7327
1152.192,84.393,88.0628,,1152.192,312.68,325.133,,1152.192,26.9902,0.270852,27.0852,27.4494
1162.622,69.968,72.5214,,1162.622,271.589,285.781,,1162.622,25.7625,0.253766,25.3766,26.0509
1173.052,59.621,65.1957,,1173.052,238.568,249.524,,1173.052,24.9912,0.26128,26.128,26.1931
1183.482,71.261,65.3701,,1183.482,213.346,223.527,,1183.482,33.4016,0.292448,29.2448,26.9068
1193.912,78.437,68.811,,1193.912,191.474,199.324,,1193.912,40.9648,0.345221,34.5221,31.8294
1204.342,110.155,99.1393,,1204.342,191.596,189.851,,1204.342,57.4934,0.522196,52.2196,43.447
1214.773,109.238,119.958,,1214.773,172.63,176.856,,1214.773,63.2787,0.678279,67.8279,62.2033
1225.203,59.149,73.6672,,1225.203,113.406,130.44,,1225.203,52.1569,0.564757,56.4757,62.5251
1235.633,30.08,35.0754,,1235.633,91.21,97.7455,,1235.633,32.9788,0.358844,35.8844,45.441
1242.586,19.656,24.7858,,1242.586,69.901,79.3938,,1242.586,28.1198,0.312188,31.2188,