Folder: lasersafe_materials/public_html/data/backup (part 10)

File: plexiglas_6C77.csv
wavelength_nm,intensity,intensity_smoothed,,wavelength_nm2,intensity_i0,intensity_i0_smoothed,,wavelength_nm3,,transmission,transmission_perc,transmission_perc_smoothed
173.232,29.315,#N/A,,173.232,26.786,#N/A,,173.232,109.441,#N/A,#N/A,#N/A
182.226,31.539,32.5772,,182.226,35.237,34.8089,,182.226,89.5053,0.935889,93.5889,#N/A
191.22,33.536,34.5136,,191.22,34.688,38.2618,,191.22,96.679,0.902037,90.2037,92.4225
200.214,33.35,30.8734,,200.214,34.593,33.7256,,200.214,96.4068,0.915428,91.5428,93.9436
209.208,34.62,34.8269,,209.208,39.771,35.6535,,209.208,87.0484,0.976815,97.6815,97.8386
218.203,33.889,30.7957,,218.203,37.039,33.577,,218.203,91.4955,0.917168,91.7168,98.234
227.197,35.158,35.1464,,227.197,37.035,37.3027,,227.197,94.9318,0.942196,94.2196,99.3163
236.191,37.517,38.3216,,236.191,27.485,31.4748,,236.191,136.5,1.21753,121.753,101.553
245.185,52.968,47.0373,,245.185,63.117,56.0939,,245.185,83.9203,0.838546,83.8546,107.596
254.158,59.418,59.4381,,254.158,77.748,75.9505,,254.158,76.4238,0.78259,78.259,81.7465
263.066,75.414,72.4951,,263.066,83.107,83.5233,,263.066,90.7433,0.867962,86.7962,81.0548
271.999,66.319,70.7535,,271.999,80.375,82.205,,271.999,82.512,0.860697,86.0697,87.447
280.958,65.496,67.4798,,280.958,85.279,82.4355,,280.958,76.802,0.818577,81.8577,85.8081
289.943,73.128,71.3065,,289.943,89.91,87.607,,289.943,81.3347,0.813936,81.3936,77.866
298.952,68.941,71.093,,298.952,84.904,83.8708,,298.952,81.1988,0.847648,84.7648,83.5197
307.987,69.027,70.7545,,307.987,79.807,85.0579,,307.987,86.4924,0.831839,83.1839,82.58
317.047,71.476,68.6737,,317.047,83.347,85.6554,,317.047,85.7571,0.801744,80.1744,80.8937
326.132,66.38,70.5619,,326.132,84.341,86.2212,,326.132,78.7043,0.818382,81.8382,82.1384
335.243,72.829,73.0757,,335.243,93.698,90.7122,,335.243,77.7274,0.805578,80.5578,81.2864
344.379,73.915,72.7842,,344.379,90.874,88.2733,,344.379,81.3379,0.824533,82.4533,81.5078
353.539,76.131,76.0119,,353.539,93.625,92.69,,353.539,81.3148,0.820066,82.0066,80.4734
362.725,85.899,80.8718,,362.725,93.62,95.0673,,362.725,91.7528,0.850679,85.0679,82.8555
371.936,85.27,82.4994,,371.936,104.25,101.025,,371.936,81.7938,0.816628,81.6628,82.394
381.171,89.269,87.643,,381.171,112.399,109.069,,381.171,79.4215,0.803555,80.3555,82.3131
390.432,102.364,96.5253,,390.432,126.82,117.99,,390.432,80.716,0.818082,81.8082,80.2692
399.718,178.95,143.17,,399.718,255.638,197.26,,399.718,70.0013,0.725795,72.5795,76.6914
409.028,856.345,561.695,,409.028,1209.068,790.336,,409.028,70.8269,0.710704,71.0704,71.3385
418.364,4857.674,3236.31,,418.364,6943.145,4622.08,,418.364,69.9636,0.700186,70.0186,70.412
427.724,18839.547,13846.2,,427.724,26342.847,19491.6,,427.724,71.5167,0.710367,71.0367,70.2632
437.108,47652.768,38228.1,,437.108,63776.327,52378.6,,437.108,74.7186,0.729842,72.9842,72.2591
446.518,55625.334,57667.2,,446.518,61778.432,62848.5,,446.518,90.0401,0.917558,91.7558,84.1214
455.952,23122.642,31277.8,,455.952,29348.811,39040.2,,455.952,78.7856,0.801169,80.1169,85.0809
465.411,10224.146,13385.9,,465.411,12896.067,16910.4,,465.411,79.2811,0.791575,79.1575,79.3836
474.895,5301.821,6398,,474.895,6668.058,8047.41,,474.895,79.5107,0.795039,79.5039,79.3478
484.403,4107.299,4304.14,,484.403,5161.596,5415.69,,484.403,79.5742,0.794754,79.4754,79.4899
493.936,5650.778,5005.71,,493.936,7190.779,6348.99,,493.936,78.5837,0.788426,78.8426,79.2614
503.493,9632.046,8376.96,,503.493,12295.73,10671.8,,503.493,78.3365,0.78496,78.496,78.6823
513.074,14232.396,12915.7,,513.074,17987.804,16371.3,,513.074,79.1225,0.788919,78.8919,78.6301
522.681,17405.779,16576.1,,522.681,21946.814,20907.2,,522.681,79.3089,0.79284,79.284,79.1246
532.311,18654.779,18411.5,,532.311,23496.634,23215.1,,532.311,79.3934,0.793082,79.3082,79.3099
541.966,18582.188,18639.3,,541.966,23404.455,23474.1,,541.966,79.3959,0.794036,79.4036,79.3687
551.645,18056.758,18247.4,,551.645,22620.916,22902.4,,551.645,79.8233,0.796746,79.6746,79.4844
561.348,16862.917,17264.5,,561.348,21446.354,21819.4,,561.348,78.6284,0.791247,79.1247,79.4873
571.076,14975.077,15571.1,,571.076,19752.474,20281.2,,571.076,75.8137,0.767762,76.7762,78.0799
580.828,13030.77,13604.6,,580.828,17905.662,18453.6,,580.828,72.7746,0.737232,73.7232,75.2728
590.604,11303.926,11819.3,,590.604,15779.739,16404.7,,590.604,71.6357,0.720483,72.0483,72.7598
600.404,9553.224,10079.9,,600.404,13544.34,14207.5,,600.404,70.533,0.709479,70.9479,71.5248
610.229,7544.558,8132.64,,610.229,11237.642,11910.8,,610.229,67.1365,0.682798,68.2798,69.7836
620.077,5678.227,6206.15,,620.077,9110.589,9742.29,,620.077,62.3256,0.637032,63.7032,66.0425
629.949,4276.044,4667.05,,629.949,7253.439,7787.88,,629.949,58.952,0.59927,59.927,61.7776
639.846,3370.149,3624.94,,639.846,5684.101,6127.03,,639.846,59.2908,0.591631,59.1631,59.2615
649.766,2721.187,2909.57,,649.766,4369.577,4738.13,,649.766,62.2758,0.614075,61.4075,60.1548
659.71,2091.919,2277.73,,659.71,3288.685,3591.12,,659.71,63.6096,0.634267,63.4267,62.3952
669.678,1535.38,1694.56,,669.678,2442.874,2674.65,,669.678,62.8514,0.633565,63.3565,63.5567
679.67,1119.758,1235.62,,679.67,1818.585,1987.78,,679.67,61.573,0.621608,62.1608,62.7163
689.686,844.403,914.224,,689.686,1333.341,1461.62,,689.686,63.3299,0.625488,62.5488,62.0125
699.726,657.491,707.276,,699.726,971.408,1066.88,,699.726,67.6843,0.662936,66.2936,64.1494
709.789,526.49,559.419,,709.789,725.356,789.904,,709.789,72.5837,0.708211,70.8211,68.4733
719.876,418.942,445.972,,719.876,528.67,580.262,,719.876,79.2445,0.76857,76.857,73.8342
729.987,328.11,357.705,,729.987,392.852,429.075,,729.987,83.52,0.833666,83.3666,80.4128
740.121,265.637,286.036,,740.121,301.501,327.788,,740.121,88.1048,0.872624,87.2624,85.663
750.279,223.286,234.638,,750.279,240.537,254.717,,750.279,92.8281,0.921171,92.1171,89.6823
760.46,184.166,195.179,,760.46,198.468,211.289,,760.46,92.7938,0.923756,92.3756,91.0883
770.665,148.612,161.656,,770.665,168.205,179.624,,770.665,88.3517,0.899965,89.9965,91.395
780.894,133.183,136.389,,780.894,141.966,151.239,,780.894,93.8133,0.901814,90.1814,89.6081
791.146,119.533,118.889,,791.146,132.738,137.751,,791.146,90.0518,0.863071,86.3071,89.0355
801.421,102.443,105.561,,801.421,125.872,125.831,,801.421,81.3866,0.83891,83.891,86.6708
811.72,99.75,102.473,,811.72,122.787,122.308,,811.72,81.2382,0.837826,83.7826,82.9919
822.042,120.71,111.846,,822.042,143.609,135.905,,822.042,84.0546,0.82297,82.297,82.8398
832.387,170.13,154.075,,832.387,213.119,194.586,,832.387,79.8286,0.791809,79.1809,81.1611
842.755,288.594,226.804,,842.755,374.652,296.792,,842.755,77.0299,0.764184,76.4184,78.2093
853.147,620.95,519.932,,853.147,839.505,701.563,,853.147,73.9662,0.741105,74.1105,74.7337
863.562,869.757,814.199,,863.562,1167.416,1089.33,,863.562,74.5027,0.747432,74.7432,74.1474
874,1092.857,1009.48,,874,1458.677,1350.71,,874,74.9211,0.747372,74.7372,74.5085
884.461,1534.409,1403.16,,884.461,2008.756,1856.17,,884.461,76.386,0.755948,75.5948,75.0164
894.946,1621.494,1643.75,,894.946,2096.312,2136.09,,894.946,77.3498,0.769516,76.9516,76.3211
905.453,1186.551,1320.64,,905.453,1501.394,1682.34,,905.453,79.03,0.784999,78.4999,77.6767
915.983,779.492,881.284,,915.983,988.66,1118.11,,915.983,78.8433,0.788188,78.8188,78.8682
926.537,545.8,607.688,,926.537,680.557,763.298,,926.537,80.199,0.796135,79.6135,79.1567
937.113,367.831,413.112,,937.113,451.536,508.519,,937.113,81.4622,0.812383,81.2383,80.3997
947.712,268.676,291.713,,947.712,329.143,359.08,,947.712,81.629,0.812388,81.2388,80.9833
958.334,223.516,236.849,,958.334,270.377,284.768,,958.334,82.6683,0.831729,83.1729,82.2795
968.979,197.987,205.73,,968.979,245.6,250.203,,968.979,80.6136,0.822252,82.2252,82.8347
979.646,210.542,205.128,,979.646,261.812,255.071,,979.646,80.4172,0.804197,80.4197,81.0926
990.336,249.455,235.904,,990.336,304.103,287.506,,990.336,82.0298,0.820516,82.0516,80.9613
1001.049,286.723,274.654,,1001.049,360.561,344.59,,1001.049,79.5214,0.797045,79.7045,80.193
1011.785,374.347,342.549,,1011.785,460.821,427.638,,1011.785,81.2348,0.801026,80.1026,79.933
1022.543,522.871,478.694,,1022.543,661.52,601.668,,1022.543,79.0408,0.795612,79.5612,80.4584
1033.324,611.203,590.426,,1033.324,766.018,742.532,,1033.324,79.7896,0.795152,79.5152,79.571
1044.128,624.161,624.833,,1044.128,790.858,786.687,,1044.128,78.922,0.794259,79.4259,79.2792
1054.954,626.379,628.349,,1054.954,785.495,789.002,,1054.954,79.7432,0.796385,79.6385,79.5284
1065.802,607.402,610.442,,1065.802,755.742,768.407,,1065.802,80.3716,0.794425,79.4425,79.2406
1076.673,576.228,587.726,,1076.673,725.053,733.084,,1076.673,79.4739,0.801717,80.1717,79.7972
1087.567,545.493,554.161,,1087.567,681.516,691.466,,1087.567,80.0411,0.801429,80.1429,79.5714
1098.461,522.832,532.205,,1098.461,651.492,658.739,,1098.461,80.2515,0.807916,80.7916,80.3457
1109.207,484.606,494.089,,1109.207,600.16,617.068,,1109.207,80.7461,0.800706,80.0706,80.2213
1119.954,445.724,456.853,,1119.954,551.335,571.208,,1119.954,80.8445,0.799801,79.9801,80.3613
1130.7,398.73,417.744,,1130.7,503.471,516.163,,1130.7,79.1962,0.809324,80.9324,80.7185
1141.446,347.895,360.876,,1141.446,436.474,453.839,,1141.446,79.7058,0.795164,79.5164,79.4681
1152.192,293.402,312.514,,1152.192,381.618,401.382,,1152.192,76.8837,0.778596,77.8596,78.8909
1162.938,252.978,263.365,,1162.938,332.811,345.955,,1162.938,76.0125,0.76127,76.127,76.6558
1173.684,216.352,225.331,,1173.684,295.239,307.404,,1173.684,73.2803,0.733012,73.3012,74.7669
1184.43,191.072,196.036,,1184.43,255.181,264.288,,1184.43,74.877,0.741751,74.1751,73.5582
1195.177,169.053,175.915,,1195.177,220.372,233.904,,1195.177,76.7126,0.752084,75.2084,74.6229
1205.923,170.028,170.461,,1205.923,216.735,224.26,,1205.923,78.4497,0.760107,76.0107,76.5906
1216.669,137.19,149.821,,1216.669,185.106,198.968,,1216.669,74.1143,0.752992,75.2992,75.7349
1227.415,87.731,101.03,,1227.415,116.599,134.267,,1227.415,75.2416,0.752452,75.2452,74.0339
1238.161,62.758,71.7353,,1238.161,88.33,97.3703,,1238.161,71.0495,0.736727,73.6727,75.1575
1242.586,65.986,67.1526,,1242.586,79.058,86.0609,,1242.586,83.4653,0.780292,78.0292,

File: plexiglas_WH17.csv
wavelength_nm,intensity,intensity_smoothed,,wavelength_nm2,intensity_i0,intensity_i0_smoothed,,wavelength_nm3,,transmission,transmission_perc,transmission_perc_smoothed
173.232,39.353,#N/A,,173.232,26.786,#N/A,,173.232,146.916,#N/A,#N/A,#N/A
181.961,53.136,54.2678,,181.961,33.965,34.9026,,181.961,156.443,1.55483,155.483,#N/A
190.691,52.222,51.9507,,190.691,35.688,38.888,,190.691,146.329,1.3359,133.59,141.572
199.421,52.216,53.8239,,199.421,32.139,33.6557,,199.421,162.469,1.59925,159.925,148.271
208.15,52.119,55.2592,,208.15,34.68,34.8943,,208.15,150.285,1.58362,158.362,155.316
216.88,50.477,53.0087,,216.88,34.676,31.8467,,216.88,145.568,1.6645,166.45,158.453
225.609,51.47,48.3217,,225.609,40.217,36.1784,,225.609,127.981,1.33565,133.565,148.821
234.339,46.737,50.1711,,234.339,34.304,34.4358,,234.339,136.244,1.45695,145.695,141.558
243.069,67.367,65.5992,,243.069,60.39,48.2331,,243.069,111.553,1.36005,136.005,155.509
251.798,81.996,80.1145,,251.798,78.022,73.4829,,251.798,105.093,1.09025,109.025,118.18
260.443,79.171,82.7762,,260.443,84.199,83.7208,,260.443,94.0284,0.988717,98.8717,103.776
269.106,81.619,81.1355,,269.106,81.376,82.2561,,269.106,100.299,0.986377,98.6377,98.5257
277.794,89.702,85.7721,,277.794,82.28,82.0625,,277.794,109.02,1.0452,104.52,102.645
286.505,84.695,87.3626,,286.505,90.184,87.6258,,286.505,93.9136,0.996996,99.6996,103.166
295.239,91.232,86.9591,,295.239,83.452,86.6223,,295.239,109.323,1.00389,100.389,98.6531
303.998,90.952,87.8419,,303.998,88.174,86.6902,,303.998,103.151,1.01329,101.329,102.985
312.78,85.852,87.2295,,312.78,89.35,86.5034,,312.78,96.0851,1.00839,100.839,103.487
321.587,88.844,92.4384,,321.587,85.253,85.7733,,321.587,104.212,1.0777,107.77,106.192
330.417,95.108,93.917,,330.417,96.156,90.4288,,330.417,98.9101,1.03857,103.857,105.961
339.27,100.553,100.013,,339.27,88.514,89.3155,,339.27,113.601,1.11977,111.977,105.779
348.148,108.674,104.047,,348.148,93.362,93.4311,,348.148,116.401,1.11363,111.363,111.671
357.048,116.807,110.794,,357.048,92.684,93.1377,,357.048,126.027,1.18957,118.957,116.211
365.973,120.926,124.546,,365.973,104.471,100.243,,365.973,115.751,1.24244,124.244,124.652
374.921,144.081,138.889,,374.921,105.923,103.86,,374.921,136.024,1.33728,133.728,126.989
383.893,168.151,159.845,,383.893,113.574,112.156,,383.893,148.054,1.4252,142.52,138.575
392.888,63985.362,47053.7,,392.888,138.54,127.014,,392.888,46185.5,370.461,37046.1,10470.1
401.906,64000,63476.2,,401.906,334.594,250.877,,401.906,19127.7,253.017,25301.7,35167.4
410.948,64000,63983.8,,410.948,1758.437,1138.44,,410.948,3639.6,56.2033,5620.33,14405.5
420.014,64000,63999.5,,420.014,9137.17,6168.31,,420.014,700.436,10.3755,1037.55,2830.57
429.102,62535.117,62837.6,,429.102,30647.898,23061.4,,429.102,204.044,2.7248,272.48,577.567
438.214,64000,63892.6,,438.214,64000,56358.9,,438.214,100,1.13367,113.367,180.484
447.35,61643.611,62828.3,,447.35,60761.932,62468.2,,447.35,101.451,1.00576,100.576,104.188
456.508,58899.059,59405.7,,456.508,27838.543,37122.1,,456.508,211.574,1.60028,160.028,119.325
465.69,37734.049,46187.2,,465.69,12596.146,16509,,465.69,299.568,2.7977,279.77,225.21
474.895,19875.504,23981.4,,474.895,6668.058,8047.41,,474.895,298.07,2.98001,298.001,292.186
484.123,15282.875,16135.6,,484.123,5160.507,5444.05,,484.123,296.151,2.9639,296.39,297.276
493.374,20531.72,18259.3,,493.374,6970.285,6189.83,,493.374,294.561,2.94989,294.989,295.714
502.649,34261.381,29778.7,,502.649,11773.899,10193.6,,502.649,290.994,2.92132,292.132,293.947
511.946,48569.067,44523,,511.946,17373.417,15713.3,,511.946,279.56,2.83347,283.347,288.606
521.266,57175.429,55009.3,,521.266,21472.576,20371.4,,521.266,266.272,2.70032,270.032,276.807
530.61,59220.008,58985.9,,530.61,23420.502,22992.8,,530.61,252.855,2.5654,256.54,263.313
539.976,58503.559,58587.5,,539.976,23489.581,23508.8,,539.976,249.062,2.49215,249.215,252.197
549.365,58820.06,58760.8,,549.365,22873.453,23102.2,,549.365,257.154,2.54351,254.351,251.037
558.777,57406.232,57995.2,,558.777,21786.544,22154.5,,558.777,263.494,2.61776,261.776,258.276
568.212,54005.646,55142.9,,568.212,20287.739,20787.2,,568.212,266.198,2.65273,265.273,263.593
577.67,49551.346,50963.7,,577.67,18510.226,19068,,577.67,267.697,2.67273,267.273,266.376
587.151,44389.387,46006.4,,587.151,16543.598,17160.6,,587.151,268.318,2.68094,268.094,267.679
596.654,38724.966,40463.1,,596.654,14396.623,15056.5,,596.654,268.986,2.68742,268.742,268.492
606.18,32695.688,34504,,606.18,12197.964,12856.3,,606.18,268.042,2.68382,268.382,268.609
615.729,26958.575,28672.7,,615.729,10058.86,10678.5,,615.729,268.008,2.6851,268.51,268.506
625.3,21769.508,23237.3,,625.3,8130.117,8667.67,,625.3,267.764,2.68091,268.091,268.223
634.895,17245.199,18605.6,,634.895,6437.347,6930.48,,634.895,267.893,2.6846,268.46,268.678
644.511,13244.857,14402.8,,644.511,5039.689,5442.77,,644.511,262.811,2.64623,264.623,266.846
654.15,10090.222,11005.3,,654.15,3879.887,4212.17,,654.15,260.065,2.61274,261.274,263.033
663.812,7545.378,8265.68,,663.812,2903.757,3185.45,,663.812,259.849,2.59482,259.482,260.345
673.496,5567.362,6134.58,,673.496,2177.624,2385.3,,673.496,255.662,2.57183,257.183,258.582
683.203,4068.533,4502.02,,683.203,1629.665,1789.43,,683.203,249.655,2.51589,251.589,254.789
692.932,2979.07,3292.91,,692.932,1205.908,1326.76,,692.932,247.04,2.48191,248.191,250.076
702.683,2148.634,2384.66,,702.683,890.997,976.474,,702.683,241.149,2.44211,244.211,246.885
712.457,1552.032,1724.05,,712.457,662.098,731.816,,712.457,234.411,2.35585,235.585,240.326
722.253,1097.793,1227.42,,722.253,492.698,539.006,,722.253,222.813,2.27719,227.719,232.167
732.071,794.528,882.173,,732.071,368.083,402.635,,732.071,215.856,2.191,219.1,223.332
741.912,597.517,651.953,,741.912,284.041,311.713,,741.912,210.363,2.09151,209.151,213.77
751.775,457.303,495.702,,751.775,237.1,248.653,,751.775,192.873,1.99355,199.355,204.261
761.66,353.36,379.743,,761.66,194.555,206.569,,761.66,181.625,1.83833,183.833,190.154
771.567,268.185,290.025,,771.567,163.64,176.077,,771.567,163.887,1.64715,164.715,174.479
781.496,219.616,236.006,,781.496,140.7,149.314,,781.496,156.088,1.5806,158.06,162.01
791.448,177.286,188.014,,791.448,132.187,137.25,,791.448,134.118,1.36986,136.986,147.274
801.421,157.694,163.473,,801.421,125.872,125.831,,801.421,125.281,1.29915,129.915,134.078
811.416,161.126,159.029,,811.416,124.855,122.025,,811.416,129.05,1.30325,130.325,128.86
821.434,217.204,198.433,,821.434,141.814,134.579,,821.434,153.161,1.47447,147.447,137.406
831.473,381.144,326.413,,831.473,210.594,188.501,,831.473,180.985,1.73163,173.163,159.09
841.534,719.154,560.612,,841.534,332.71,269.986,,841.534,216.15,2.07644,207.644,190.983
851.617,1814.781,1466.29,,851.617,770.317,633.325,,851.617,235.589,2.31522,231.522,220.544
861.722,2733.947,2507.13,,861.722,1129.608,1039.28,,861.722,242.026,2.41236,241.236,236.61
871.849,3334.641,3115,,871.849,1369.33,1283.25,,871.849,243.524,2.42744,242.744,241.834
881.998,4636.755,4211.97,,881.998,1894.555,1728.37,,881.998,244.741,2.43696,243.696,243.237
892.168,5332.154,5248.06,,892.168,2167.414,2133.41,,892.168,246.015,2.45994,245.994,245.373
902.36,4125.489,4561.16,,902.36,1687.304,1860.3,,902.36,244.502,2.45184,245.184,245.597
912.574,2709.603,3106.6,,912.574,1116.511,1277.41,,912.574,242.685,2.43196,243.196,244.261
922.809,1836.55,2074.39,,922.809,778.594,868.159,,922.809,235.88,2.38941,238.941,241.032
933.066,1202.032,1383.08,,933.066,526.489,595.013,,933.066,228.311,2.32446,232.446,235.327
943.345,805.321,912.124,,943.345,364.376,409.241,,943.345,221.014,2.22882,222.882,228.052
953.645,616.778,664.389,,953.645,288.345,308.804,,953.645,213.903,2.15149,215.149,217.926
963.966,518.222,542.496,,963.966,254.941,261.316,,963.966,203.271,2.07601,207.601,210.576
974.31,502.65,505.542,,974.31,250.162,247.567,,974.31,200.93,2.04204,204.204,205.417
984.674,589.153,553.898,,984.674,275.919,265.785,,984.674,213.524,2.08401,208.401,203.572
995.06,716.001,671.773,,995.06,334.117,312.552,,995.06,214.296,2.14931,214.931,212.423
1005.467,879.102,819.383,,1005.467,392.301,371.571,,1005.467,224.089,2.20518,220.518,216.416
1015.896,1231.908,1108.06,,1015.896,527.561,479.986,,1015.896,233.51,2.30852,230.852,225.005
1026.346,1688.871,1568.64,,1026.346,708.896,662.723,,1026.346,238.24,2.36696,236.696,233.607
1036.817,1864.626,1825.47,,1036.817,784.121,766.641,,1036.817,237.798,2.38113,238.113,238.223
1047.31,1909.624,1905.47,,1047.31,791.053,789.481,,1047.31,241.403,2.41358,241.358,239.753
1057.823,1886.589,1902.32,,1057.823,784.782,786.688,,1057.823,240.397,2.41813,241.813,241.803
1068.358,1826.338,1851.77,,1068.358,746.577,758.991,,1068.358,244.628,2.43978,243.978,242.347
1078.914,1749.866,1774.57,,1078.914,718.983,727.046,,1078.914,243.381,2.44079,244.079,244.081
1089.491,1677.078,1693.22,,1089.491,680.268,686.215,,1089.491,246.532,2.46748,246.748,245.269
1100.042,1599.609,1625.46,,1100.042,648.432,654.815,,1100.042,246.689,2.48232,248.232,248.128
1110.472,1499.545,1531.19,,1110.472,594.744,610.059,,1110.472,252.133,2.50991,250.991,248.304
1120.902,1374.247,1416.4,,1120.902,545.02,565.139,,1120.902,252.146,2.50628,250.628,250.258
1131.332,1261.53,1293.33,,1131.332,500.167,513.641,,1131.332,252.222,2.51796,251.796,251.287
1141.762,1101.029,1146.19,,1141.762,435.458,452.103,,1141.762,252.844,2.53525,253.525,252.853
1152.192,976.561,1012.22,,1152.192,381.618,401.382,,1152.192,255.9,2.52183,252.183,252.452
1162.622,855.127,893.957,,1162.622,334.467,347.231,,1162.622,255.669,2.57453,257.453,254.577
1173.052,754.822,779.458,,1173.052,298.098,309.96,,1173.052,253.213,2.51471,251.471,254.394
1183.482,659.563,685.482,,1183.482,258.334,266.759,,1183.482,255.314,2.56966,256.966,253.25
1193.912,570.452,596.706,,1193.912,226.821,239.129,,1193.912,251.499,2.49533,249.533,252.314
1204.342,528.144,540.821,,1204.342,223.842,225.218,,1204.342,235.945,2.40133,240.133,248.587
1214.773,451.57,478.628,,1214.773,195.595,206.08,,1214.773,230.87,2.32254,232.254,236.786
1225.203,307.396,345.393,,1225.203,125.828,148.028,,1225.203,244.299,2.33329,233.329,230.939
1235.633,219.929,244.561,,1235.633,95.926,102.941,,1235.633,229.269,2.37574,237.574,239.644
1242.586,190.629,203.118,,1242.586,79.058,86.0609,,1242.586,241.126,2.36017,236.017,