Folder: lasersafe_materials/public_html/data/backup (part 6)

File: plexiglas_0F00.csv
wavelength_nm,intensity,intensity_smoothed,,wavelength_nm2,intensity_i0,intensity_i0_smoothed,,wavelength_nm3,,transmission,transmission_perc,transmission_perc_smoothed
173.232,17.719,#N/A,,173.232,26.786,#N/A,,173.232,66.1502,#N/A,#N/A,#N/A
181.961,37.066,30.737,,181.961,33.965,34.9026,,181.961,109.13,0.880652,88.0652,#N/A
190.691,31.155,30.1828,,190.691,35.688,38.888,,190.691,87.2983,0.776147,77.6147,84.1574
199.421,23.88,29.2812,,199.421,32.139,33.6557,,199.421,74.3022,0.870021,87.0021,85.2698
208.15,36.696,35.7465,,208.15,34.68,34.8943,,208.15,105.813,1.02442,102.442,89.4779
216.88,26.33,27.8311,,216.88,34.676,31.8467,,216.88,75.9315,0.873909,87.3909,93.1291
225.609,31.328,27.6596,,225.609,40.217,36.1784,,225.609,77.8974,0.764534,76.4534,82.4701
234.339,33.599,32.5608,,234.339,34.304,34.4358,,234.339,97.9448,0.945551,94.5551,87.163
243.069,52.142,44.9027,,243.069,60.39,48.2331,,243.069,86.3421,0.930952,93.0952,99.1997
251.798,71.139,66.3358,,251.798,78.022,73.4829,,251.798,91.1781,0.902739,90.2739,93.613
260.443,74.409,74.024,,260.443,84.199,83.7208,,260.443,88.3728,0.884177,88.4177,90.0718
269.106,81.043,77.7008,,269.106,81.376,82.2561,,269.106,99.5908,0.944621,94.4621,92.1183
277.794,76.677,78.1445,,277.794,82.28,82.0625,,277.794,93.1903,0.952255,95.2255,96.4195
286.505,82.038,79.0553,,286.505,90.184,87.6258,,286.505,90.9674,0.902192,90.2192,91.8651
295.239,81.489,83.0101,,295.239,83.452,86.6223,,295.239,97.6477,0.9583,95.83,93.7064
303.998,81.123,78.5103,,303.998,88.174,86.6902,,303.998,92.0033,0.905642,90.5642,93.4655
312.78,81.302,83.086,,312.78,89.35,86.5034,,312.78,90.9927,0.960495,96.0495,94.235
321.587,81.662,79.7654,,321.587,85.253,85.7733,,321.587,95.7878,0.929956,92.9956,93.2128
330.417,83.75,83.1493,,330.417,96.156,90.4288,,330.417,87.098,0.9195,91.95,93.1372
339.27,81.292,81.5707,,339.27,88.514,89.3155,,339.27,91.8408,0.913287,91.3287,91.1348
348.148,88.229,83.1463,,348.148,93.362,93.4311,,348.148,94.502,0.889922,88.9922,91.3138
357.048,88.243,88.9285,,357.048,92.684,93.1377,,357.048,95.2085,0.954806,95.4806,92.9912
365.973,92.96,94.307,,365.973,104.471,100.243,,365.973,88.9816,0.940783,94.0783,95.489
374.921,99.268,96.3248,,374.921,105.923,103.86,,374.921,93.7171,0.927451,92.7451,94.3188
383.893,102.312,100.905,,383.893,113.574,112.156,,383.893,90.084,0.899682,89.9682,91.0759
392.888,133.005,121.379,,392.888,138.54,127.014,,392.888,96.0048,0.955632,95.5632,91.9324
401.906,325.302,239.645,,401.906,334.594,250.877,,401.906,97.2229,0.955229,95.5229,94.8208
410.948,1786.265,1151.06,,410.948,1758.437,1138.44,,410.948,101.583,1.01109,101.109,99.1126
420.014,9232.18,6249.75,,420.014,9137.17,6168.31,,420.014,101.04,1.0132,101.32,101.375
429.102,30682.423,23152.1,,429.102,30647.898,23061.4,,429.102,100.113,1.00393,100.393,100.8
438.214,64000,56312.7,,438.214,64000,56358.9,,438.214,100,0.999181,99.9181,99.9968
447.35,60766.996,62388,,447.35,60761.932,62468.2,,447.35,100.008,0.998717,99.8717,99.9293
456.508,28704.888,38045.1,,456.508,27838.543,37122.1,,456.508,103.112,1.02486,102.486,101.11
465.69,13080.855,17088.5,,465.69,12596.146,16509,,465.69,103.848,1.0351,103.51,103.03
474.895,6909.127,8339.27,,474.895,6668.058,8047.41,,474.895,103.615,1.03627,103.627,103.655
484.123,5344.15,5633.6,,484.123,5160.507,5444.05,,484.123,103.559,1.03482,103.482,103.584
493.374,7137.469,6357.89,,493.374,6970.285,6189.83,,493.374,102.399,1.02715,102.715,103.207
502.649,12021.696,10436,,502.649,11773.899,10193.6,,502.649,102.105,1.02378,102.378,102.564
511.946,17782.302,16060.9,,511.946,17373.417,15713.3,,511.946,102.354,1.02212,102.212,102.232
521.266,22037.119,20886.1,,521.266,21472.576,20371.4,,521.266,102.629,1.02526,102.526,102.361
530.61,24040.386,23604.4,,530.61,23420.502,22992.8,,530.61,102.647,1.0266,102.66,102.575
539.976,24164.573,24168.2,,539.976,23489.581,23508.8,,539.976,102.874,1.02805,102.805,102.775
549.365,23611.085,23804.2,,549.365,22873.453,23102.2,,549.365,103.225,1.03039,103.039,102.919
558.777,22491.828,22851.8,,558.777,21786.544,22154.5,,558.777,103.237,1.03147,103.147,103.147
568.212,20999.773,21464.6,,568.212,20287.739,20787.2,,568.212,103.51,1.03259,103.259,103.208
577.67,19150.826,19703.6,,577.67,18510.226,19068,,577.67,103.461,1.03333,103.333,103.356
587.151,17113.14,17734.1,,587.151,16543.598,17160.6,,587.151,103.443,1.03342,103.342,103.306
596.654,14899.648,15597.1,,596.654,14396.623,15056.5,,596.654,103.494,1.03591,103.591,103.456
606.18,12648.709,13332.1,,606.18,12197.964,12856.3,,606.18,103.695,1.03701,103.701,103.563
615.729,10416.301,11067.4,,615.729,10058.86,10678.5,,615.729,103.553,1.03643,103.643,103.717
625.3,8404.194,8996.98,,625.3,8130.117,8667.67,,625.3,103.371,1.03799,103.799,103.758
634.895,6693.92,7186.63,,634.895,6437.347,6930.48,,634.895,103.986,1.03696,103.696,103.715
644.511,5210.268,5638.53,,644.511,5039.689,5442.77,,644.511,103.385,1.03597,103.597,103.732
654.15,4003.196,4348.7,,654.15,3879.887,4212.17,,654.15,103.178,1.03241,103.241,103.483
663.812,3014.597,3300.98,,663.812,2903.757,3185.45,,663.812,103.817,1.03627,103.627,103.483
673.496,2249.191,2462.9,,673.496,2177.624,2385.3,,673.496,103.286,1.03253,103.253,103.504
683.203,1668.076,1833.33,,683.203,1629.665,1789.43,,683.203,102.357,1.02453,102.453,102.858
692.932,1238.035,1360.59,,692.932,1205.908,1326.76,,692.932,102.664,1.02549,102.549,102.604
702.683,914.802,1003.99,,702.683,890.997,976.474,,702.683,102.672,1.02818,102.818,103.189
712.457,676.346,742.278,,712.457,662.098,731.816,,712.457,102.152,1.0143,101.43,102.145
722.253,506.948,555.465,,722.253,492.698,539.006,,722.253,102.892,1.03054,103.054,102.316
732.071,373.403,409.424,,732.071,368.083,402.635,,732.071,101.445,1.01686,101.686,102.137
741.912,291.266,312.54,,741.912,284.041,311.713,,741.912,102.544,1.00265,100.265,100.404
751.775,232.238,248.935,,751.775,237.1,248.653,,751.775,97.9494,1.00113,100.113,100.598
761.66,188.412,204.047,,761.66,194.555,206.569,,761.66,96.8425,0.987789,98.7789,98.3524
771.567,162.14,171.384,,771.567,163.64,176.077,,771.567,99.0834,0.973347,97.3347,98.4876
781.496,144.869,151.53,,781.496,140.7,149.314,,781.496,102.963,1.01484,101.484,99.5019
791.448,124.667,130.237,,791.448,132.187,137.25,,791.448,94.3111,0.948902,94.8902,97.4206
801.421,114.349,116.831,,801.421,125.872,125.831,,801.421,90.8455,0.928477,92.8477,94.7658
811.416,112.455,117.126,,811.416,124.855,122.025,,811.416,90.0685,0.959854,95.9854,93.7485
821.434,132.108,126.97,,821.434,141.814,134.579,,821.434,93.1558,0.94346,94.346,95.259
831.473,209.65,185.491,,831.473,210.594,188.501,,831.473,99.5517,0.984033,98.4033,95.7785
841.534,339.112,271.771,,841.534,332.71,269.986,,841.534,101.924,1.00661,100.661,100.027
851.617,793.814,648.369,,851.617,770.317,633.325,,851.617,103.05,1.02376,102.376,101.36
861.722,1156.803,1065.8,,861.722,1129.608,1039.28,,861.722,102.407,1.02551,102.551,102.515
871.849,1384.364,1302.46,,871.849,1369.33,1283.25,,871.849,101.098,1.01497,101.497,102.059
881.998,1913.935,1743.35,,881.998,1894.555,1728.37,,881.998,101.023,1.00866,100.866,101.052
892.168,2221.091,2178.18,,892.168,2167.414,2133.41,,892.168,102.477,1.02098,102.098,101.423
902.36,1735.943,1905.6,,902.36,1687.304,1860.3,,902.36,102.883,1.02435,102.435,102.303
912.574,1161.691,1323.31,,912.574,1116.511,1277.41,,912.574,104.047,1.03593,103.593,103.026
922.809,799.82,895.327,,922.809,778.594,868.159,,922.809,102.726,1.03129,103.129,103.323
933.066,552.036,619.149,,933.066,526.489,595.013,,933.066,104.852,1.04056,104.056,103.248
943.345,379.522,421.509,,943.345,364.376,409.241,,943.345,104.157,1.02998,102.998,103.737
953.645,287.547,311.689,,953.645,288.345,308.804,,953.645,99.7232,1.00934,100.934,102.189
963.966,253.568,260.991,,963.966,254.941,261.316,,963.966,99.4614,0.998755,99.8755,100.438
974.31,248.22,251.356,,974.31,250.162,247.567,,974.31,99.2237,1.0153,101.53,101.104
984.674,277.411,267.53,,984.674,275.919,265.785,,984.674,100.541,1.00657,100.657,100.413
995.06,337.232,321.17,,995.06,334.117,312.552,,995.06,100.932,1.02757,102.757,101.605
1005.467,399.682,375.803,,1005.467,392.301,371.571,,1005.467,101.881,1.01139,101.139,101.434
1015.896,542.487,490.88,,1015.896,527.561,479.986,,1015.896,102.829,1.0227,102.27,101.758
1026.346,720.466,677.513,,1026.346,708.896,662.723,,1026.346,101.632,1.02232,102.232,102.609
1036.817,794.161,776.234,,1036.817,784.121,766.641,,1036.817,101.28,1.01251,101.251,102.166
1047.31,812.392,805.289,,1047.31,791.053,789.481,,1047.31,102.698,1.02002,102.002,101.65
1057.823,791.338,799.024,,1057.823,784.782,786.688,,1057.823,100.835,1.01568,101.568,102.233
1068.358,758.272,770.258,,1068.358,746.577,758.991,,1068.358,101.566,1.01484,101.484,101.526
1078.914,728.282,736.667,,1078.914,718.983,727.046,,1078.914,101.293,1.01323,101.323,101.741
1089.491,685.64,697.808,,1089.491,680.268,686.215,,1089.491,100.79,1.01689,101.689,101.742
1100.042,651.618,663.729,,1100.042,648.432,654.815,,1100.042,100.491,1.01361,101.361,101.709
1110.472,612.942,620.663,,1110.472,594.744,610.059,,1110.472,103.06,1.01738,101.738,100.96
1120.902,561.701,581,,1120.902,545.02,565.139,,1120.902,103.061,1.02806,102.806,102.359
1131.332,509.532,527.323,,1131.332,500.167,513.641,,1131.332,101.872,1.02664,102.664,102.776
1141.762,451.796,466.651,,1141.762,435.458,452.103,,1141.762,103.752,1.03218,103.218,102.558
1152.192,388.675,406.002,,1152.192,381.618,401.382,,1152.192,101.849,1.01151,101.151,102.415
1162.622,341.17,352.751,,1162.622,334.467,347.231,,1162.622,102.004,1.0159,101.59,101.179
1173.052,287.828,303.576,,1173.052,298.098,309.96,,1173.052,96.5548,0.979404,97.9404,100.068
1183.482,258.924,267.961,,1183.482,258.334,266.759,,1183.482,100.228,1.0045,100.45,98.05
1193.912,230.008,237.664,,1193.912,226.821,239.129,,1193.912,101.405,0.993876,99.3876,99.0851
1204.342,221.54,225.343,,1204.342,223.842,225.218,,1204.342,98.9716,1.00056,100.056,101.305
1214.773,197.348,203.897,,1214.773,195.595,206.08,,1214.773,100.896,0.989406,98.9406,99.7996
1225.203,136.26,149.078,,1225.203,125.828,148.028,,1225.203,108.291,1.00709,100.709,99.6847
1235.633,92.47,104.18,,1235.633,95.926,102.941,,1235.633,96.3972,1.01204,101.204,102.309
1242.586,85.32,85.3696,,1242.586,79.058,86.0609,,1242.586,107.921,0.991968,99.1968,

File: plexiglas_1C33.csv
wavelength_nm,intensity,intensity_smoothed,,wavelength_nm2,intensity_i0,intensity_i0_smoothed,,wavelength_nm3,,transmission,transmission_perc,transmission_perc_smoothed
173.232,14.801,#N/A,,173.232,26.786,#N/A,,173.232,55.2565,#N/A,#N/A,#N/A
182.226,23.616,23.6139,,182.226,35.237,34.8089,,182.226,67.0205,0.678389,67.8389,#N/A
191.22,21.066,23.4671,,191.22,34.688,38.2618,,191.22,60.7299,0.61333,61.333,63.6384
200.214,25.426,21.9856,,200.214,34.593,33.7256,,200.214,73.5004,0.651895,65.1895,62.757
209.208,24.241,23.7968,,209.208,39.771,35.6535,,209.208,60.9514,0.667445,66.7445,68.2531
218.203,23.873,20.2776,,218.203,37.039,33.577,,218.203,64.4537,0.603913,60.3913,70.4054
227.197,20.233,21.4391,,227.197,37.035,37.3027,,227.197,54.6321,0.574734,57.4734,66.4337
236.191,25.956,25.137,,236.191,27.485,31.4748,,236.191,94.437,0.798638,79.8638,67.9951
245.185,48.497,40.3298,,245.185,63.117,56.0939,,245.185,76.8367,0.718969,71.8969,73.9449
254.158,48.947,45.7265,,254.158,77.748,75.9505,,254.158,62.956,0.602057,60.2057,67.3735
263.066,55.942,52.8572,,263.066,83.107,83.5233,,263.066,67.3132,0.632843,63.2843,62.7624
271.999,50.483,52.3099,,271.999,80.375,82.205,,271.999,62.8093,0.636335,63.6335,65.9325
280.958,52.024,51.3878,,280.958,85.279,82.4355,,280.958,61.0045,0.62337,62.337,62.9502
289.943,55.382,52.8156,,289.943,89.91,87.607,,289.943,61.5972,0.602869,60.2869,60.4434
298.952,54.832,53.5194,,298.952,84.904,83.8708,,298.952,64.5812,0.638117,63.8117,62.415
307.987,50.099,53.9162,,307.987,79.807,85.0579,,307.987,62.7752,0.633877,63.3877,63.462
317.047,56.275,53.8085,,317.047,83.347,85.6554,,317.047,67.5189,0.628198,62.8198,61.1398
326.132,53.633,54.4071,,326.132,84.341,86.2212,,326.132,63.5907,0.631018,63.1018,63.318
335.243,56.173,57.5882,,335.243,93.698,90.7122,,335.243,59.9511,0.634845,63.4845,61.4954
344.379,53.167,52.6762,,344.379,90.874,88.2733,,344.379,58.5063,0.59674,59.674,61.7391
353.539,55.474,54.4011,,353.539,93.625,92.69,,353.539,59.2513,0.586915,58.6915,57.8437
362.725,57.976,55.9982,,362.725,93.62,95.0673,,362.725,61.9269,0.589037,58.9037,59.4145
371.936,61.583,58.8743,,371.936,104.25,101.025,,371.936,59.0724,0.582772,58.2772,56.624
381.171,57.667,55.8884,,381.171,112.399,109.069,,381.171,51.3056,0.512413,51.2413,55.6333
390.432,59.435,59.163,,390.432,126.82,117.99,,390.432,46.8656,0.501425,50.1425,52.4202
399.718,64.411,60.8717,,399.718,255.638,197.26,,399.718,25.1962,0.308587,30.8587,41.3461
409.028,67.859,65.0362,,409.028,1209.068,790.336,,409.028,5.6125,0.0822893,8.22893,18.9927
418.364,66.659,67.7476,,418.364,6943.145,4622.08,,418.364,0.960069,0.0146574,1.46574,4.01351
427.724,63.106,59.5658,,427.724,26342.847,19491.6,,427.724,0.239556,0.00305597,0.305597,0.727261
437.108,65.949,67.6802,,437.108,63776.327,52378.6,,437.108,0.103407,0.00129214,0.129214,0.200274
446.518,65.008,63.8865,,446.518,61778.432,62848.5,,446.518,0.105228,0.00101652,0.101652,0.109302
455.952,59.348,59.6897,,455.952,29348.811,39040.2,,455.952,0.202216,0.00152893,0.152893,0.118014
465.411,59.605,59.545,,465.411,12896.067,16910.4,,465.411,0.462195,0.0035212,0.35212,0.237612
474.895,61.383,58.2439,,474.895,6668.058,8047.41,,474.895,0.920553,0.0072376,0.72376,0.531885
484.403,90.083,79.0236,,484.403,5161.596,5415.69,,484.403,1.74525,0.0145916,1.45916,1.07807
493.936,343.736,232.776,,493.936,7190.779,6348.99,,493.936,4.78023,0.0366634,3.66634,2.3216
503.493,1528.715,1089.55,,503.493,12295.73,10671.8,,503.493,12.4329,0.102096,10.2096,6.63776
513.074,4074.989,3227.8,,513.074,17987.804,16371.3,,513.074,22.6542,0.197161,19.7161,14.8046
522.681,8395.443,6967.49,,522.681,21946.814,20907.2,,522.681,38.2536,0.333258,33.3258,26.0176
532.311,14491.481,12677.3,,532.311,23496.634,23215.1,,532.311,61.6747,0.546078,54.6078,43.4275
541.966,19495.215,18198,,541.966,23404.455,23474.1,,541.966,83.297,0.775235,77.5235,66.4347
551.645,21551.192,21133.1,,551.645,22620.916,22902.4,,551.645,95.2711,0.922745,92.2745,85.6734
561.348,21316.882,21473.7,,561.348,21446.354,21819.4,,561.348,99.3963,0.984156,98.4156,95.7891
571.076,19899.568,20361.9,,571.076,19752.474,20281.2,,571.076,100.745,1.00398,100.398,99.4839
580.828,18050.905,18628.1,,580.828,17905.662,18453.6,,580.828,100.811,1.00946,100.946,100.722
590.604,15968.305,16599.4,,590.604,15779.739,16404.7,,590.604,101.195,1.01187,101.187,101.043
600.404,13722.706,14400.7,,600.404,13544.34,14207.5,,600.404,101.317,1.0136,101.36,101.373
610.229,11409.822,12074.7,,610.229,11237.642,11910.8,,610.229,101.532,1.01376,101.376,101.337
620.077,9236.239,9869.47,,620.077,9110.589,9742.29,,620.077,101.379,1.01305,101.305,101.402
629.949,7352.668,7894.56,,629.949,7253.439,7787.88,,629.949,101.368,1.0137,101.37,101.389
639.846,5734.376,6209.65,,639.846,5684.101,6127.03,,639.846,100.884,1.01349,101.349,101.382
649.766,4402.196,4771.13,,649.766,4369.577,4738.13,,649.766,100.747,1.00697,100.697,100.954
659.71,3302.868,3624.2,,659.71,3288.685,3591.12,,659.71,100.431,1.00921,100.921,100.727
669.678,2444.639,2687.13,,669.678,2442.874,2674.65,,669.678,100.072,1.00467,100.467,100.562
679.67,1804.707,1985.82,,679.67,1818.585,1987.78,,679.67,99.2369,0.999017,99.9017,100.26
689.686,1317.916,1450.34,,689.686,1333.341,1461.62,,689.686,98.8431,0.992284,99.2284,99.3027
699.726,953.573,1052,,699.726,971.408,1066.88,,699.726,98.164,0.986052,98.6052,98.8463
709.789,699.67,767.779,,709.789,725.356,789.904,,709.789,96.4588,0.97199,97.199,98.0999
719.876,501.495,557.142,,719.876,528.67,580.262,,719.876,94.8597,0.960157,96.0157,96.6078
729.987,359.573,398.545,,729.987,392.852,429.075,,729.987,91.5289,0.928846,92.8846,94.4715
740.121,272.439,295.176,,740.121,301.501,327.788,,740.121,90.3609,0.900509,90.0509,92.2256
750.279,197.467,222.007,,750.279,240.537,254.717,,750.279,82.0942,0.87158,87.158,89.3082
760.46,162.349,177.583,,760.46,198.468,211.289,,760.46,81.8011,0.840476,84.0476,84.293
770.665,135.46,138.688,,770.665,168.205,179.624,,770.665,80.5327,0.772098,77.2098,79.7584
780.894,109.942,113.999,,780.894,141.966,151.239,,780.894,77.4425,0.75377,75.377,76.682
791.146,92.765,100.021,,791.146,132.738,137.751,,791.146,69.8858,0.726097,72.6097,73.5303
801.421,81.647,86.7729,,801.421,125.872,125.831,,801.421,64.8651,0.6896,68.96,69.4341
811.72,72.972,74.1119,,811.72,122.787,122.308,,811.72,59.4297,0.605944,60.5944,63.1987
822.042,72.21,70.2025,,822.042,143.609,135.905,,822.042,50.2824,0.516555,51.6555,58.275
832.387,68.33,74.6995,,832.387,213.119,194.586,,832.387,32.0619,0.383889,38.3889,46.5893
842.755,65.335,60.8119,,842.755,374.652,296.792,,842.755,17.4388,0.204897,20.4897,29.6189
853.147,67.164,74.235,,853.147,839.505,701.563,,853.147,8.00043,0.105814,10.5814,15.0045
863.562,52.148,58.347,,863.562,1167.416,1089.33,,863.562,4.46696,0.0535623,5.35623,7.29929
874,41.311,43.1327,,874,1458.677,1350.71,,874,2.83209,0.0319334,3.19334,4.17613
884.461,41.948,43.5733,,884.461,2008.756,1856.17,,884.461,2.08826,0.0234749,2.34749,2.76138
894.946,48.309,46.3146,,894.946,2096.312,2136.09,,894.946,2.30448,0.021682,2.1682,2.17311
905.453,47.144,47.4156,,905.453,1501.394,1682.34,,905.453,3.14002,0.0281843,2.81843,2.41036
915.983,53.247,50.3747,,915.983,988.66,1118.11,,915.983,5.38577,0.0450533,4.50533,3.50775
926.537,54.514,49.0145,,926.537,680.557,763.298,,926.537,8.0102,0.0642142,6.42142,5.20521
937.113,46.046,47.9015,,937.113,451.536,508.519,,937.113,10.1976,0.0941981,9.41981,8.02332
947.712,51.752,48.6561,,947.712,329.143,359.08,,947.712,15.7233,0.135502,13.5502,11.1639
958.334,54.54,55.7126,,958.334,270.377,284.768,,958.334,20.1718,0.195642,19.5642,16.4648
968.979,50.863,53.2544,,968.979,245.6,250.203,,968.979,20.7097,0.212845,21.2845,19.6638
979.646,53.267,55.8057,,979.646,261.812,255.071,,979.646,20.3455,0.218785,21.8785,21.7465
990.336,61.659,58.5182,,990.336,304.103,287.506,,990.336,20.2757,0.203537,20.3537,21.2225
1001.049,76.311,70.4764,,1001.049,360.561,344.59,,1001.049,21.1645,0.204522,20.4522,20.6325
1011.785,106.767,97.3055,,1011.785,460.821,427.638,,1011.785,23.1689,0.227542,22.7542,21.5123
1022.543,173.025,154.946,,1022.543,661.52,601.668,,1022.543,26.1557,0.257528,25.7528,24.1072
1033.324,233.447,214.087,,1033.324,766.018,742.532,,1033.324,30.4754,0.28832,28.832,26.7387
1044.128,309.668,280.891,,1044.128,790.858,786.687,,1044.128,39.156,0.357056,35.7056,32.2317
1054.954,374.05,353.868,,1054.954,785.495,789.002,,1054.954,47.6197,0.448501,44.8501,40.5743
1065.802,456.59,436.047,,1065.802,755.742,768.407,,1065.802,60.4161,0.567468,56.7468,50.5163
1076.673,523.832,508.205,,1076.673,725.053,733.084,,1076.673,72.2474,0.693243,69.3243,63.1044
1087.567,559.409,550.369,,1087.567,681.516,691.466,,1087.567,82.083,0.795945,79.5945,74.387
1098.461,575.32,576.238,,1098.461,651.492,658.739,,1098.461,88.3081,0.87476,87.476,83.6514
1109.207,552.379,564.11,,1109.207,600.16,617.068,,1109.207,92.0386,0.914179,91.4179,89.2475
1119.954,514.767,530.956,,1119.954,551.335,571.208,,1119.954,93.3674,0.929531,92.9531,92.363
1130.7,463.664,481.896,,1130.7,503.471,516.163,,1130.7,92.0935,0.933612,93.3612,93.509
1141.446,409.794,426.161,,1141.446,436.474,453.839,,1141.446,93.8874,0.939014,93.9014,92.9904
1152.192,363.249,374.638,,1152.192,381.618,401.382,,1152.192,95.1865,0.93337,93.337,93.306
1162.938,308.484,324.117,,1162.938,332.811,345.955,,1162.938,92.6904,0.936876,93.6876,93.8015
1173.684,264.23,277.306,,1173.684,295.239,307.404,,1173.684,89.497,0.902092,90.2092,91.9785
1184.43,226.49,236.939,,1184.43,255.181,264.288,,1184.43,88.7566,0.896519,89.6519,90.2524
1195.177,191.365,199.588,,1195.177,220.372,233.904,,1195.177,86.8373,0.853293,85.3293,86.6635
1205.923,149.959,164.673,,1205.923,216.735,224.26,,1205.923,69.19,0.734295,73.4295,80.4267
1216.669,119.014,129.561,,1216.669,185.106,198.968,,1216.669,64.2951,0.651167,65.1167,68.043
1227.415,89.007,98.3809,,1227.415,116.599,134.267,,1227.415,76.336,0.732724,73.2724,67.7793
1238.161,70.417,79.0765,,1238.161,88.33,97.3703,,1238.161,79.7204,0.812122,81.2122,78.6672
1242.586,59.809,70.9495,,1242.586,79.058,86.0609,,1242.586,75.6521,0.82441,82.441,