Folder: lasersafe_materials/public_html/data/backup (part 5)

File: makrolon-turkish_blue_543.csv
wavelength_nm,intensity,intensity_smoothed,,wavelength_nm2,intensity_i0,intensity_i0_smoothed,,wavelength_nm3,,transmission,transmission_perc,transmission_perc_smoothed
173.232,14.62,#N/A,,173.232,26.024,#N/A,,173.232,56.1789,#N/A,#N/A,#N/A
182.226,23.965,23.0048,,182.226,37.219,36.6837,,182.226,64.3892,0.627113,62.7113,#N/A
191.22,23.415,24.3604,,191.22,43.219,43.5829,,191.22,54.1776,0.558944,55.8944,55.9057
200.214,25.866,21.8599,,200.214,38.487,42.1124,,200.214,67.2071,0.519085,51.9085,51.4675
209.208,23.225,24.4081,,209.208,40.21,41.34,,209.208,57.7593,0.590423,59.0423,59.5951
218.203,26.585,22.3791,,218.203,43.66,39.32,,218.203,60.891,0.569152,56.9152,55.668
227.197,25.489,24.2857,,227.197,40.928,41.6867,,227.197,62.2777,0.582577,58.2577,55.9113
236.191,26.303,24.8777,,236.191,45.378,43.5585,,236.191,57.9642,0.571132,57.1132,53.1772
245.185,26.208,26.4813,,245.185,68.191,61.595,,245.185,38.4332,0.429926,42.9926,46.703
254.158,29.385,28.0427,,254.158,83.913,79.8665,,254.158,35.0184,0.351119,35.1119,39.5938
263.066,28.016,28.0523,,263.066,88.272,85.6838,,263.066,31.7383,0.327393,32.7393,35.4119
271.999,31.284,30.7623,,271.999,96.63,93.8624,,271.999,32.375,0.327738,32.7738,35.1195
280.958,34.46,34.1937,,280.958,90.533,89.5566,,280.958,38.0635,0.381811,38.1811,36.3145
289.943,34.455,32.6854,,289.943,90.255,90.6136,,289.943,38.1752,0.360712,36.0712,36.2083
298.952,29.359,29.6632,,298.952,95.431,93.5602,,298.952,30.7646,0.31705,31.705,35.1565
307.987,27.989,28.9064,,307.987,92.334,89.9978,,307.987,30.3128,0.32119,32.119,32.274
317.047,36.256,33.3037,,317.047,95.055,94.2753,,317.047,38.1421,0.35326,35.326,32.3773
326.132,19.395,22.786,,326.132,94.958,93.6745,,326.132,20.4248,0.243246,24.3246,32.7228
335.243,23.849,24.5172,,335.243,101.496,98.891,,335.243,23.4975,0.247921,24.7921,24.3901
344.379,23.757,24.8372,,344.379,104.217,100.503,,344.379,22.7957,0.247129,24.7129,24.6533
353.539,23.591,24.7853,,353.539,106.567,104.59,,353.539,22.1372,0.236975,23.6975,23.6824
362.725,25.243,24.0862,,362.725,115.754,112.854,,362.725,21.8075,0.213427,21.3427,21.8599
371.936,25.87,27.0234,,371.936,123.06,119.205,,371.936,21.0223,0.226697,22.6697,22.3123
381.171,30.019,32.3267,,381.171,137.525,133.26,,381.171,21.828,0.242584,24.2584,23.3008
390.432,26.782,28.7273,,390.432,150.717,144.106,,390.432,17.7697,0.199348,19.9348,22.2166
399.718,57.279,44.3417,,399.718,272.022,218.252,,399.718,21.0568,0.203167,20.3167,19.4211
409.028,284.64,187.119,,409.028,1208.244,808.398,,409.028,23.5582,0.231468,23.1468,21.7125
418.364,1533.425,1036.18,,418.364,6479.905,4361.01,,418.364,23.6643,0.2376,23.76,23.8319
427.724,6807.97,4855.93,,427.724,23830.084,17724.6,,427.724,28.5688,0.273966,27.3966,25.1685
437.108,22430.585,17010.2,,437.108,56269.108,46051.4,,437.108,39.8631,0.369374,36.9374,31.4736
446.518,25786.157,27556,,446.518,60380.834,61991.5,,446.518,42.7059,0.444513,44.4513,41.9617
455.952,13226.183,15871.7,,455.952,26403.844,35592,,455.952,50.0919,0.445935,44.5935,42.7428
465.411,8429.53,9937.26,,465.411,11596.916,15200.4,,465.411,72.6877,0.653751,65.3751,54.5969
474.895,4822.195,5661.37,,474.895,6015.105,7261.93,,474.895,80.1681,0.779596,77.9596,72.6544
484.403,3701.881,3917.97,,484.403,4613.299,4880.49,,484.403,80.2437,0.802781,80.2781,79.6171
493.936,4784.188,4319.57,,493.936,6134.021,5491.74,,493.936,77.9943,0.786558,78.6558,79.6242
503.493,7352.22,6575.35,,503.493,10106.778,8836.5,,503.493,72.7454,0.744112,74.4112,76.8043
513.074,9228.456,8799.1,,513.074,14446.963,13216.5,,513.074,63.8782,0.665767,66.5767,70.808
522.681,8715.134,9013.78,,522.681,17402.064,16648.3,,522.681,50.081,0.541422,54.1422,60.7116
532.311,6330.263,7119.61,,532.311,18380.58,18221.8,,532.311,34.44,0.390719,39.0719,46.7369
541.966,3570.755,4351.6,,541.966,18090.567,18218.8,,541.966,19.7382,0.238852,23.8852,31.3261
551.645,1458.272,2014.39,,551.645,17389.423,17628.1,,551.645,8.38597,0.114271,11.4271,17.3884
561.348,439.591,665.502,,561.348,16250.673,16589.7,,561.348,2.70506,0.0401153,4.01153,7.26171
571.076,176.152,236.342,,571.076,14842.811,15280.2,,571.076,1.18678,0.0154672,1.54672,2.55671
580.828,80.623,104.63,,580.828,13316.289,13768.3,,580.828,0.605446,0.00759933,0.759933,1.10611
590.604,48.14,52.7227,,590.604,11676.05,12159.6,,590.604,0.412297,0.0043359,0.43359,0.583714
600.404,26.424,30.4052,,600.404,9996.849,10502.9,,600.404,0.264323,0.00289494,0.289494,0.371445
610.229,25.862,27.0819,,610.229,8324.554,8809.51,,610.229,0.310671,0.00307416,0.307416,0.307638
620.077,22.015,26.924,,620.077,6734.089,7201.65,,620.077,0.326919,0.00373859,0.373859,0.36144
629.949,20.65,22.7999,,629.949,5317.543,5729.63,,629.949,0.388337,0.00397929,0.397929,0.376552
639.846,23.218,22.5472,,639.846,4218.878,4532.11,,639.846,0.550336,0.00497499,0.497499,0.425893
649.766,24.887,26.5858,,649.766,3271.211,3533.54,,649.766,0.760789,0.00752383,0.752383,0.596468
659.71,20.226,23.5733,,659.71,2492.87,2714.3,,659.71,0.811354,0.00868484,0.868484,0.802919
669.678,24.148,24.2464,,669.678,1873.849,2048.16,,669.678,1.28868,0.0118381,1.18381,0.999552
679.67,25.883,23.4412,,679.67,1407.015,1539.76,,679.67,1.83957,0.0152239,1.52239,1.30339
689.686,27.391,25.4138,,689.686,1055.543,1148.23,,689.686,2.59497,0.022133,2.2133,1.81516
699.726,25.249,25.4626,,699.726,793.442,867.434,,699.726,3.18221,0.029354,2.9354,2.55351
709.789,28.988,24.8296,,709.789,609.751,660.452,,709.789,4.75407,0.0375949,3.75949,3.12939
719.876,21.229,21.6752,,719.876,454.741,495.487,,719.876,4.66837,0.0437451,4.37451,4.03569
729.987,27.061,26.6623,,729.987,359.991,387.199,,729.987,7.51713,0.0688596,6.88596,5.42941
740.121,22.885,22.1911,,740.121,300.205,312.262,,740.121,7.62312,0.0710656,7.10656,7.00037
750.279,21.963,22.2964,,750.279,248.84,263.198,,750.279,8.82615,0.0847134,8.47134,7.90636
760.46,37.065,33.9792,,760.46,204.293,221.999,,760.46,18.1431,0.15306,15.306,11.1243
770.665,48.24,43.8175,,770.665,193.588,199.951,,770.665,24.9189,0.219141,21.9141,18.1663
780.894,57.412,53.1142,,780.894,180.465,184.937,,780.894,31.8134,0.287201,28.7201,26.1646
791.146,51.183,53.0855,,791.146,155.299,160.44,,791.146,32.9577,0.330874,33.0874,31.386
801.421,47.281,52.7337,,801.421,149.967,149.915,,801.421,31.5276,0.351758,35.1758,34.6496
811.72,47.09,47.5614,,811.72,146.042,147.85,,811.72,32.2441,0.321687,32.1687,33.3633
822.042,53.55,50.7044,,822.042,162.001,155.059,,822.042,33.0554,0.327001,32.7001,31.7959
832.387,62.064,59.825,,832.387,212.616,200.136,,832.387,29.1907,0.298922,29.8922,32.6461
842.755,94.688,78.546,,842.755,333.384,272.42,,842.755,28.4021,0.288327,28.8327,30.3177
853.147,198.575,166.789,,853.147,694.657,589.044,,853.147,28.5861,0.283152,28.3152,28.1183
863.562,299.208,268.428,,863.562,925.745,874.019,,863.562,32.3208,0.307119,30.7119,29.3945
874,441.698,395.648,,874,1123.132,1046.42,,874,39.3273,0.378096,37.8096,34.2263
884.461,632.904,580.668,,884.461,1538.543,1420.4,,884.461,41.1366,0.408805,40.8805,39.68
894.946,638.666,655.5,,894.946,1606.768,1632.49,,894.946,39.7485,0.401534,40.1534,40.6568
905.453,511.082,543.969,,905.453,1162.273,1298.52,,905.453,43.9726,0.418914,41.8914,40.5337
915.983,425.605,444.244,,915.983,779.347,876.084,,915.983,54.6105,0.50708,50.708,45.8126
926.537,363.675,383.357,,926.537,550.145,611.073,,926.537,66.1053,0.62735,62.735,57.0398
937.113,258.38,288.365,,937.113,374.39,419.664,,937.113,69.0136,0.687134,68.7134,66.4135
947.712,187.538,207.412,,947.712,287.625,308.57,,947.712,65.2023,0.672172,67.2172,68.1333
958.334,151.057,156.491,,958.334,235.305,247.702,,958.334,64.1963,0.63177,63.177,65.0937
968.979,140.484,140.981,,968.979,219.156,221.753,,968.979,64.1023,0.635758,63.5758,63.0586
979.646,143.544,140.37,,979.646,223.994,219.881,,979.646,64.0839,0.63839,63.839,63.2337
990.336,169.784,159.922,,990.336,255.455,246.471,,990.336,66.4634,0.648847,64.8847,63.3745
1001.049,191.658,183.316,,1001.049,300.356,287.985,,1001.049,63.8103,0.636548,63.6548,64.9162
1011.785,243.164,226.216,,1011.785,367.422,339.365,,1011.785,66.1811,0.666585,66.6585,65.2408
1022.543,323.213,301.582,,1022.543,499.288,463.801,,1022.543,64.7348,0.65024,65.024,65.3678
1033.324,338.076,339.941,,1033.324,578.316,561.291,,1033.324,58.4587,0.605641,60.5641,63.1738
1044.128,308.844,321.099,,1044.128,590.776,587.997,,1044.128,52.2777,0.546088,54.6088,57.3963
1054.954,252.972,272.535,,1054.954,594.94,597.752,,1054.954,42.5206,0.455934,45.5934,50.2679
1065.802,201.458,218.093,,1065.802,567.258,573.583,,1065.802,35.5144,0.38023,38.023,41.7722
1076.673,150.302,166.785,,1076.673,539.548,552.254,,1076.673,27.857,0.302007,30.2007,34.0561
1087.567,104.231,116.895,,1087.567,514.169,524.895,,1087.567,20.2717,0.222703,22.2703,26.3288
1098.461,76.062,80.1059,,1098.461,495.209,503.172,,1098.461,15.3596,0.159202,15.9202,18.4825
1109.207,50.25,56.0306,,1109.207,467.849,473.81,,1109.207,10.7406,0.118255,11.8255,14.0879
1119.954,38.612,41.0446,,1119.954,424.267,434.548,,1119.954,9.10087,0.0944535,9.44535,10.3008
1130.7,38.512,33.9118,,1130.7,393.187,403.106,,1130.7,9.79483,0.0841264,8.41264,7.964
1141.446,30.677,29.3181,,1141.446,346.154,357.45,,1141.446,8.86224,0.08202,8.202,8.49957
1152.192,28.56,27.6921,,1152.192,303.532,316.029,,1152.192,9.40922,0.087625,8.7625,8.76984
1162.938,16.708,20.2634,,1162.938,273.956,282.136,,1162.938,6.09879,0.0718214,7.18214,8.73538
1173.684,15.575,17.3758,,1173.684,239.977,249.836,,1173.684,6.49021,0.0695489,6.95489,6.76187
1184.43,19.982,20.3271,,1184.43,215.417,222.34,,1184.43,9.27596,0.0914236,9.14236,8.86786
1195.177,22.202,20.7713,,1195.177,194.106,196.649,,1195.177,11.4381,0.105626,10.5626,9.97145
1205.923,17.965,23.5096,,1205.923,193.602,190.628,,1205.923,9.27935,0.123327,12.3327,12.8253
1216.669,26.367,26.367,,1216.669,158.562,173.626,,1216.669,16.6288,0.151861,15.1861,13.1918
1227.415,16.411,18.2581,,1227.415,103.645,120.474,,1227.415,15.8339,0.151552,15.1552,13.9158
1238.161,5.92,9.25167,,1238.161,78.243,85.1732,,1238.161,7.56617,0.108622,10.8622,14.0726
1242.586,8.078,9.62872,,1242.586,64.806,76.3368,,1242.586,12.4649,0.126135,12.6135,

File: makrolon-violet_402.csv
wavelength_nm,intensity,intensity_smoothed,,wavelength_nm2,intensity_i0,intensity_i0_smoothed,,wavelength_nm3,,transmission,transmission_perc,transmission_perc_smoothed
173.232,23.896,#N/A,,173.232,26.024,#N/A,,173.232,91.8229,#N/A,#N/A,#N/A
182.226,34.907,35.1938,,182.226,37.219,36.6837,,182.226,93.7881,0.959386,95.9386,#N/A
191.22,35.356,36.4182,,191.22,43.219,43.5829,,191.22,81.8066,0.835608,83.5608,89.1884
200.214,36.442,35.4676,,200.214,38.487,42.1124,,200.214,94.6865,0.842213,84.2213,80.268
209.208,35.528,37.7929,,209.208,40.21,41.34,,209.208,88.3561,0.914197,91.4197,88.8165
218.203,35.159,36.3853,,218.203,43.66,39.32,,218.203,80.5291,0.925363,92.5363,88.2102
227.197,32.517,37.3327,,227.197,40.928,41.6867,,227.197,79.4493,0.895554,89.5554,86.5707
236.191,38.329,39.386,,236.191,45.378,43.5585,,236.191,84.466,0.904208,90.4208,88.8784
245.185,64.233,56.1238,,245.185,68.191,61.595,,245.185,94.1957,0.911174,91.1174,85.1059
254.158,72.227,68.7206,,254.158,83.913,79.8665,,254.158,86.0737,0.860443,86.0443,88.0097
263.066,77.948,76.4798,,263.066,88.272,85.6838,,263.066,88.3043,0.892582,89.2582,87.9734
271.999,72.487,73.5071,,271.999,96.63,93.8624,,271.999,75.015,0.783137,78.3137,83.6282
280.958,76.571,76.2338,,280.958,90.533,89.5566,,280.958,84.578,0.851235,85.1235,83.0894
289.943,76.473,74.7117,,289.943,90.255,90.6136,,289.943,84.7299,0.824509,82.4509,83.052
298.952,77.648,77.1976,,298.952,95.431,93.5602,,298.952,81.3656,0.825111,82.5111,84.4257
307.987,79.823,76.799,,307.987,92.334,89.9978,,307.987,86.4503,0.853342,85.3342,83.3979
317.047,72.997,74.8763,,317.047,95.055,94.2753,,317.047,76.7945,0.794231,79.4231,83.5062
326.132,74.626,79.276,,326.132,94.958,93.6745,,326.132,78.5884,0.846292,84.6292,81.7073
335.243,85.072,80.54,,335.243,101.496,98.891,,335.243,83.8181,0.814432,81.4432,79.9923
344.379,80.064,83.0535,,344.379,104.217,100.503,,344.379,76.8243,0.82638,82.638,83.6856
353.539,85.887,83.7478,,353.539,106.567,104.59,,353.539,80.5944,0.800723,80.0723,80.4186
362.725,89.696,90.603,,362.725,115.754,112.854,,362.725,77.4885,0.802831,80.2831,80.3391
371.936,97.247,93.3903,,371.936,123.06,119.205,,371.936,79.0241,0.783444,78.3444,78.4792
381.171,101.989,99.0159,,381.171,137.525,133.26,,381.171,74.1603,0.743029,74.3029,75.6963
390.432,115.466,109.268,,390.432,150.717,144.106,,390.432,76.6111,0.758247,75.8247,73.6222
399.718,247.381,189.946,,399.718,272.022,218.252,,399.718,90.9415,0.870302,87.0302,79.4582
409.028,1242.754,813.686,,409.028,1208.244,808.398,,409.028,102.856,1.00654,100.654,94.158
418.364,6902.175,4634.14,,418.364,6479.905,4361.01,,418.364,106.517,1.06263,106.263,104.354
427.724,25568.114,19010.7,,427.724,23830.084,17724.6,,427.724,107.293,1.07256,107.256,106.903
437.108,59818.306,49055.2,,437.108,56269.108,46051.4,,437.108,106.308,1.06523,106.523,106.963
446.518,61249.736,62542.5,,446.518,60380.834,61991.5,,446.518,101.439,1.00889,100.889,103.034
455.952,27690.939,37226.4,,455.952,26403.844,35592,,455.952,104.875,1.04592,104.592,103.024
465.411,12052.825,15862.2,,465.411,11596.916,15200.4,,465.411,103.931,1.04354,104.354,104.686
474.895,6184.47,7481.01,,474.895,6015.105,7261.93,,474.895,102.816,1.03017,103.017,103.685
484.403,4651.552,4950.02,,484.403,4613.299,4880.49,,484.403,100.829,1.01425,101.425,102.359
493.936,6083.555,5469.5,,493.936,6134.021,5491.74,,493.936,99.1773,0.99595,99.595,100.47
503.493,9712.872,8577.25,,503.493,10106.778,8836.5,,503.493,96.1026,0.970661,97.0661,98.3399
513.074,13624.317,12540.6,,513.074,14446.963,13216.5,,513.074,94.3058,0.948864,94.8864,95.8963
522.681,15840.179,15325.8,,522.681,17402.064,16648.3,,522.681,91.0247,0.920558,92.0558,93.6085
532.311,15870.559,15985.7,,532.311,18380.58,18221.8,,532.311,86.3442,0.877283,87.7283,89.9694
541.966,15076.039,15277.2,,541.966,18090.567,18218.8,,541.966,83.3365,0.838541,83.8541,85.5655
551.645,14637.502,14753.2,,551.645,17389.423,17628.1,,551.645,84.1747,0.836916,83.6916,83.565
561.348,13862.944,14121.3,,561.348,16250.673,16589.7,,561.348,85.3069,0.851206,85.1206,84.4869
571.076,12443.49,12891.8,,571.076,14842.811,15280.2,,571.076,83.8351,0.843691,84.3691,84.9433
580.828,10963.115,11371.2,,580.828,13316.289,13768.3,,580.828,82.3286,0.825902,82.5902,83.3842
590.604,10175.582,10366.8,,590.604,11676.05,12159.6,,590.604,87.1492,0.852564,85.2564,83.3567
600.404,9566.077,9760.96,,600.404,9996.849,10502.9,,600.404,95.6909,0.929361,92.9361,88.919
610.229,8526.992,8863.81,,610.229,8324.554,8809.51,,610.229,102.432,1.00616,100.616,97.0017
620.077,7182.319,7583.13,,620.077,6734.089,7201.65,,620.077,106.656,1.05297,105.297,103.17
629.949,5808.89,6212.68,,629.949,5317.543,5729.63,,629.949,109.24,1.08431,108.431,106.804
639.846,4646.925,4988.57,,639.846,4218.878,4532.11,,639.846,110.146,1.10072,110.072,109.413
649.766,3660.276,3937.76,,649.766,3271.211,3533.54,,649.766,111.894,1.11439,111.439,110.599
659.71,2825.769,3066.73,,659.71,2492.87,2714.3,,659.71,113.354,1.12984,112.984,112.146
669.678,2150.402,2333.2,,669.678,1873.849,2048.16,,669.678,114.759,1.13916,113.916,113.508
679.67,1615.299,1765.25,,679.67,1407.015,1539.76,,679.67,114.803,1.14644,114.644,114.448
689.686,1204.108,1315.79,,689.686,1055.543,1148.23,,689.686,114.075,1.14592,114.592,114.915
699.726,906.325,989.638,,699.726,793.442,867.434,,699.726,114.227,1.14088,114.088,114.271
709.789,674.448,739.473,,709.789,609.751,660.452,,709.789,110.61,1.11965,111.965,113.086
719.876,504.203,550.585,,719.876,454.741,495.487,,719.876,110.877,1.1112,111.12,111.714
729.987,387.576,417.914,,729.987,359.991,387.199,,729.987,107.663,1.07933,107.933,109.484
740.121,307.853,328.312,,740.121,300.205,312.262,,740.121,102.548,1.0514,105.14,107.071
750.279,256.289,270.271,,750.279,248.84,263.198,,750.279,102.993,1.02687,102.687,103.303
760.46,193.385,214.545,,760.46,204.293,221.999,,760.46,94.6606,0.966423,96.6423,99.8649
770.665,182.187,185.553,,770.665,193.588,199.951,,770.665,94.1107,0.927993,92.7993,94.3557
780.894,158.358,165.083,,780.894,180.465,184.937,,780.894,87.75,0.892644,89.2644,91.3366
791.146,141.777,146.111,,791.146,155.299,160.44,,791.146,91.2929,0.91069,91.069,89.5107
801.421,129.332,131.533,,801.421,149.967,149.915,,801.421,86.2403,0.877382,87.7382,89.7156
811.72,128.848,126.335,,811.72,146.042,147.85,,811.72,88.2267,0.85448,85.448,86.3092
822.042,142.845,137.19,,822.042,162.001,155.059,,822.042,88.1754,0.884757,88.4757,87.1316
832.387,205.903,192.869,,832.387,212.616,200.136,,832.387,96.8427,0.96369,96.369,92.783
842.755,359.322,285.792,,842.755,333.384,272.42,,842.755,107.78,1.04909,104.909,98.9972
853.147,777.84,647.084,,853.147,694.657,589.044,,853.147,111.975,1.09853,109.853,107.67
863.562,1064.87,995.851,,863.562,925.745,874.019,,863.562,115.028,1.13939,113.939,112.247
874,1296.375,1205.53,,874,1123.132,1046.42,,874,115.425,1.15205,115.205,114.424
884.461,1782.018,1644.65,,884.461,1538.543,1420.4,,884.461,115.825,1.15787,115.787,115.571
894.946,1846.9,1882.47,,894.946,1606.768,1632.49,,894.946,114.945,1.15313,115.313,115.752
905.453,1333.952,1492.81,,905.453,1162.273,1298.52,,905.453,114.771,1.14962,114.962,115.26
915.983,868.134,986.474,,915.983,779.347,876.084,,915.983,111.392,1.126,112.6,113.944
926.537,598.729,675.26,,926.537,550.145,611.073,,926.537,108.831,1.10504,110.504,111.799
937.113,405.952,454.75,,937.113,374.39,419.664,,937.113,108.43,1.08361,108.361,108.982
947.712,285.989,317.201,,947.712,287.625,308.57,,947.712,99.4312,1.02797,102.797,106.022
958.334,235.942,245.28,,958.334,235.305,247.702,,958.334,100.271,0.990222,99.0222,100.737
968.979,212.337,217.618,,968.979,219.156,221.753,,968.979,96.8885,0.981355,98.1355,98.8278
979.646,221.176,213.632,,979.646,223.994,219.881,,979.646,98.7419,0.971577,97.1577,96.6052
990.336,252.546,237.258,,990.336,255.455,246.471,,990.336,98.8612,0.962619,96.2619,97.4301
1001.049,288.537,279.179,,1001.049,300.356,287.985,,1001.049,96.065,0.96942,96.942,97.4559
1011.785,360.513,335.738,,1011.785,367.422,339.365,,1011.785,98.1196,0.989312,98.9312,98.0679
1022.543,495.288,458.453,,1022.543,499.288,463.801,,1022.543,99.1989,0.988468,98.8468,98.2716
1033.324,567.952,552.996,,1033.324,578.316,561.291,,1033.324,98.2079,0.985223,98.5223,98.9589
1044.128,564.867,568.774,,1044.128,590.776,587.997,,1044.128,95.6144,0.967306,96.7306,97.6829
1054.954,556.394,559.904,,1054.954,594.94,597.752,,1054.954,93.521,0.936684,93.6684,94.7029
1065.802,510.349,523.084,,1065.802,567.258,573.583,,1065.802,89.9677,0.911958,91.1958,92.7639
1076.673,475.73,485.81,,1076.673,539.548,552.254,,1076.673,88.172,0.879685,87.9685,89.475
1087.567,434.714,446.971,,1087.567,514.169,524.895,,1087.567,84.5469,0.851544,85.1544,87.0037
1098.461,422.846,429.879,,1098.461,495.209,503.172,,1098.461,85.3874,0.854338,85.4338,85.5489
1109.207,396.576,404.883,,1109.207,467.849,473.81,,1109.207,84.7658,0.854527,85.4527,85.6703
1119.954,365.994,378.141,,1119.954,424.267,434.548,,1119.954,86.265,0.870195,87.0195,86.1126
1130.7,333.46,344.005,,1130.7,393.187,403.106,,1130.7,84.8095,0.853387,85.3387,86.0939
1141.446,288.336,304.79,,1141.446,346.154,357.45,,1141.446,83.297,0.852679,85.2679,84.9089
1152.192,253.532,261.251,,1152.192,303.532,316.029,,1152.192,83.5273,0.826667,82.6667,82.9735
1162.938,212.774,226.014,,1162.938,273.956,282.136,,1162.938,77.6672,0.801084,80.1084,81.7903
1173.684,194.886,201.769,,1173.684,239.977,249.836,,1173.684,81.2103,0.807604,80.7604,79.9843
1184.43,180.872,179.214,,1184.43,215.417,222.34,,1184.43,83.9637,0.806036,80.6036,80.3398
1195.177,160.106,168.524,,1195.177,194.106,196.649,,1195.177,82.4838,0.856982,85.6982,83.9513
1205.923,169.693,169.542,,1205.923,193.602,190.628,,1205.923,87.6504,0.889388,88.9388,87.6666
1216.669,142.744,158.048,,1216.669,158.562,173.626,,1216.669,90.0241,0.910278,91.0278,90.3171
1227.415,98.917,114.3,,1227.415,103.645,120.474,,1227.415,95.4383,0.948748,94.8748,89.7666
1238.161,74.152,81.2147,,1238.161,78.243,85.1732,,1238.161,94.7714,0.953524,95.3524,96.0712
1242.586,66.639,72.2258,,1242.586,64.806,76.3368,,1242.586,102.828,0.946147,94.6147,