Folder: lasersafe_materials/public_html/data/backup (part 11)

File: plexiglas_WN370.csv
wavelength_nm,intensity,intensity_smoothed,,wavelength_nm2,intensity_i0,intensity_i0_smoothed,,wavelength_nm3,,transmission,transmission_perc,transmission_perc_smoothed
173.232,8.9,#N/A,,173.232,26.786,#N/A,,173.232,33.2263,#N/A,#N/A,#N/A
182.226,16.081,14.1531,,182.226,35.237,34.8089,,182.226,45.6367,0.406595,40.6595,#N/A
191.22,14.897,18.0133,,191.22,34.688,38.2618,,191.22,42.9457,0.470792,47.0792,44.137
200.214,16.44,17.1388,,200.214,34.593,33.7256,,200.214,47.5241,0.508185,50.8185,43.1827
209.208,15.802,16.7636,,209.208,39.771,35.6535,,209.208,39.7325,0.47018,47.018,45.6298
218.203,14.982,13.6604,,218.203,37.039,33.577,,218.203,40.4493,0.40684,40.684,43.9036
227.197,15.344,15.0232,,227.197,37.035,37.3027,,227.197,41.4311,0.402737,40.2737,43.6632
236.191,11.887,13.9615,,236.191,27.485,31.4748,,236.191,43.249,0.443577,44.3577,40.2903
245.185,13.885,14.6979,,245.185,63.117,56.0939,,245.185,21.9988,0.262022,26.2022,38.5293
254.158,9.246,11.2967,,254.158,77.748,75.9505,,254.158,11.8923,0.148737,14.8737,21.9645
263.066,24.426,17.9547,,263.066,83.107,83.5233,,263.066,29.391,0.214966,21.4966,17.3749
271.999,21.878,17.6138,,271.999,80.375,82.205,,271.999,27.2199,0.214267,21.4267,22.3033
280.958,21.421,21.3384,,280.958,85.279,82.4355,,280.958,25.1187,0.25885,25.885,25.3321
289.943,14.6,16.4523,,289.943,89.91,87.607,,289.943,16.2385,0.187796,18.7796,23.4912
298.952,17.87,17.8557,,298.952,84.904,83.8708,,298.952,21.0473,0.212895,21.2895,20.0952
307.987,18.05,18.0681,,307.987,79.807,85.0579,,307.987,22.6171,0.212421,21.2421,21.8797
317.047,19.592,19.9268,,317.047,83.347,85.6554,,317.047,23.5065,0.232639,23.2639,21.1415
326.132,17.68,19.2211,,326.132,84.341,86.2212,,326.132,20.9625,0.222927,22.2927,22.0802
335.243,16.405,18.1928,,335.243,93.698,90.7122,,335.243,17.5084,0.200555,20.0555,21.21
344.379,23.038,22.244,,344.379,90.874,88.2733,,344.379,25.3516,0.25199,25.199,20.7209
353.539,16.214,20.5492,,353.539,93.625,92.69,,353.539,17.318,0.221698,22.1698,24.8136
362.725,17.197,17.4798,,362.725,93.62,95.0673,,362.725,18.3689,0.183868,18.3868,20.601
371.936,20.76,21.7574,,371.936,104.25,101.025,,371.936,19.9137,0.215367,21.5367,19.832
381.171,20.781,18.6937,,381.171,112.399,109.069,,381.171,18.4886,0.171394,17.1394,18.4866
390.432,22.154,21.6418,,390.432,126.82,117.99,,390.432,17.4689,0.183421,18.3421,19.001
399.718,58.059,44.9248,,399.718,255.638,197.26,,399.718,22.7114,0.227745,22.7745,19.3927
409.028,322.231,205.081,,409.028,1209.068,790.336,,409.028,26.6512,0.259486,25.9486,23.9314
418.364,1945.968,1290.92,,418.364,6943.145,4622.08,,418.364,28.0272,0.279294,27.9294,27.1942
427.724,7304.938,5427.67,,427.724,26342.847,19491.6,,427.724,27.7303,0.278462,27.8462,27.9606
437.108,18071.448,14507.9,,437.108,63776.327,52378.6,,437.108,28.3357,0.276982,27.6982,27.7781
446.518,20925.364,22157.6,,446.518,61778.432,62848.5,,446.518,33.8716,0.352555,35.2555,32.2452
455.952,8097.928,11141.3,,455.952,29348.811,39040.2,,455.952,27.592,0.285381,28.5381,31.4197
465.411,3576.867,4687.16,,465.411,12896.067,16910.4,,465.411,27.7361,0.277176,27.7176,27.9511
474.895,1854.628,2230.2,,474.895,6668.058,8047.41,,474.895,27.8136,0.277132,27.7132,27.708
484.403,1454.604,1518,,484.403,5161.596,5415.69,,484.403,28.1813,0.280297,28.0297,27.875
493.936,2025.942,1787.29,,493.936,7190.779,6348.99,,493.936,28.1742,0.281508,28.1508,28.1528
503.493,3459.818,2996.06,,503.493,12295.73,10671.8,,503.493,28.1384,0.280745,28.0745,28.1326
513.074,5040.616,4588.28,,513.074,17987.804,16371.3,,513.074,28.0224,0.280263,28.0263,28.0569
522.681,6149.664,5856.56,,522.681,21946.814,20907.2,,522.681,28.0208,0.280122,28.0122,28.0029
532.311,6627.861,6531.63,,532.311,23496.634,23215.1,,532.311,28.2077,0.281353,28.1353,28.0565
541.966,6614.228,6627.61,,541.966,23404.455,23474.1,,541.966,28.2606,0.282337,28.2337,28.2229
551.645,6439.448,6495.28,,551.645,22620.916,22902.4,,551.645,28.4668,0.283606,28.3606,28.2974
561.348,6133.786,6223.98,,561.348,21446.354,21819.4,,561.348,28.6006,0.28525,28.525,28.4388
571.076,5707.056,5849.81,,571.076,19752.474,20281.2,,571.076,28.8929,0.288436,28.8436,28.6643
580.828,5200.611,5353.85,,580.828,17905.662,18453.6,,580.828,29.0445,0.290125,29.0125,28.9344
590.604,4618.855,4791.8,,590.604,15779.739,16404.7,,590.604,29.2708,0.2921,29.21,29.099
600.404,3994.292,4179.34,,600.404,13544.34,14207.5,,600.404,29.4905,0.294165,29.4165,29.3196
610.229,3365.936,3551.58,,610.229,11237.642,11910.8,,610.229,29.9523,0.298182,29.8182,29.6212
620.077,2760.165,2938.29,,620.077,9110.589,9742.29,,620.077,30.2962,0.301602,30.1602,29.9826
629.949,2253.776,2395.8,,629.949,7253.439,7787.88,,629.949,31.0718,0.307632,30.7632,30.4216
639.846,1775.412,1904.5,,639.846,5684.101,6127.03,,639.846,31.2347,0.310836,31.0836,30.9618
649.766,1368.944,1483.58,,649.766,4369.577,4738.13,,649.766,31.329,0.313115,31.3115,31.2491
659.71,1046.931,1139.33,,659.71,3288.685,3591.12,,659.71,31.8343,0.317264,31.7264,31.4881
669.678,791.372,866.855,,669.678,2442.874,2674.65,,669.678,32.3951,0.324101,32.4101,31.9828
679.67,587.471,638.127,,679.67,1818.585,1987.78,,679.67,32.3037,0.321026,32.1026,32.2487
689.686,441.542,478.163,,689.686,1333.341,1461.62,,689.686,33.1155,0.327147,32.7147,32.4575
699.726,317.343,354.93,,699.726,971.408,1066.88,,699.726,32.6684,0.332679,33.2679,33.0477
709.789,235.613,259.407,,709.789,725.356,789.904,,709.789,32.4824,0.328403,32.8403,32.7957
719.876,175.117,190.978,,719.876,528.67,580.262,,719.876,33.1241,0.329124,32.9124,32.7178
729.987,128.303,140.743,,729.987,392.852,429.075,,729.987,32.6594,0.328015,32.8015,33.06
740.121,100.113,108.6,,740.121,301.501,327.788,,740.121,33.2049,0.331313,33.1313,33.0409
750.279,79.371,81.1301,,750.279,240.537,254.717,,750.279,32.9974,0.31851,31.851,32.2413
760.46,66.822,70.1579,,760.46,198.468,211.289,,760.46,33.6689,0.332047,33.2047,31.7057
770.665,46.769,52.708,,770.665,168.205,179.624,,770.665,27.8048,0.293435,29.3435,31.2145
780.894,46.144,46.2004,,780.894,141.966,151.239,,780.894,32.5036,0.30548,30.548,30.5076
791.146,36.702,40.3291,,791.146,132.738,137.751,,791.146,27.65,0.292767,29.2767,31.161
801.421,33.402,35.5957,,801.421,125.872,125.831,,801.421,26.5365,0.282886,28.2886,28.7442
811.72,30.908,28.9515,,811.72,122.787,122.308,,811.72,25.172,0.236709,23.6709,27.0994
822.042,42.505,36.845,,822.042,143.609,135.905,,822.042,29.5977,0.271107,27.1107,25.2153
832.387,57.358,50.3757,,832.387,213.119,194.586,,832.387,26.9136,0.258887,25.8887,26.504
842.755,93.385,74.1194,,842.755,374.652,296.792,,842.755,24.9258,0.249735,24.9735,25.3069
853.147,194.733,166.552,,853.147,839.505,701.563,,853.147,23.1962,0.237401,23.7401,24.4913
863.562,266.547,251.768,,863.562,1167.416,1089.33,,863.562,22.8322,0.231123,23.1123,23.4249
874,335.204,309.887,,874,1458.677,1350.71,,874,22.98,0.229425,22.9425,23.0353
884.461,464.804,428.103,,884.461,2008.756,1856.17,,884.461,23.1389,0.230639,23.0639,23.014
894.946,481.929,490.668,,894.946,2096.312,2136.09,,894.946,22.9894,0.229704,22.9704,22.9908
905.453,355.084,393.879,,905.453,1501.394,1682.34,,905.453,23.6503,0.234125,23.4125,23.1285
915.983,234.165,263.334,,915.983,988.66,1118.11,,915.983,23.6851,0.235516,23.5516,23.601
926.537,158.782,180.511,,926.537,680.557,763.298,,926.537,23.3312,0.236488,23.6488,23.6502
937.113,107.481,121.739,,937.113,451.536,508.519,,937.113,23.8034,0.239398,23.9398,23.7051
947.712,80.353,86.7559,,947.712,329.143,359.08,,947.712,24.4128,0.241606,24.1606,24.2013
958.334,63.578,67.5141,,958.334,270.377,284.768,,958.334,23.5146,0.237085,23.7085,24.3152
968.979,59.974,61.4129,,968.979,245.6,250.203,,968.979,24.4194,0.245452,24.5452,24.3967
979.646,60.267,62.7353,,979.646,261.812,255.071,,979.646,23.0192,0.245952,24.5952,25.2256
990.336,75.909,69.2228,,990.336,304.103,287.506,,990.336,24.9616,0.24077,24.077,24.1558
1001.049,89.992,86.2483,,1001.049,360.561,344.59,,1001.049,24.9589,0.250292,25.0292,25.074
1011.785,119.24,109.494,,1011.785,460.821,427.638,,1011.785,25.8756,0.256044,25.6044,25.4156
1022.543,170.47,154.012,,1022.543,661.52,601.668,,1022.543,25.7694,0.255974,25.5974,25.3489
1033.324,193.407,186.499,,1033.324,766.018,742.532,,1033.324,25.2484,0.251166,25.1166,25.352
1044.128,206.231,199.581,,1044.128,790.858,786.687,,1044.128,26.0769,0.253698,25.3698,25.2138
1054.954,200.303,203.624,,1054.954,785.495,789.002,,1054.954,25.5002,0.258078,25.8078,25.9833
1065.802,198.713,200.18,,1065.802,755.742,768.407,,1065.802,26.2938,0.260513,26.0513,25.9379
1076.673,188.911,189.908,,1076.673,725.053,733.084,,1076.673,26.0548,0.259053,25.9053,26.0185
1087.567,186.805,188.547,,1087.567,681.516,691.466,,1087.567,27.4102,0.272678,27.2678,26.4881
1098.461,172.482,174.623,,1098.461,651.492,658.739,,1098.461,26.4749,0.265087,26.5087,26.7441
1109.207,160.94,167.358,,1109.207,600.16,617.068,,1109.207,26.8162,0.271215,27.1215,26.9435
1119.954,154.721,155.128,,1119.954,551.335,571.208,,1119.954,28.063,0.271579,27.1579,27.1482
1130.7,142.732,143.699,,1130.7,503.471,516.163,,1130.7,28.3496,0.278399,27.8399,27.3606
1141.446,121.7,125.6,,1141.446,436.474,453.839,,1141.446,27.8825,0.27675,27.675,27.4332
1152.192,105.441,110.935,,1152.192,381.618,401.382,,1152.192,27.63,0.276384,27.6384,27.4693
1162.938,94.593,99.7251,,1162.938,332.811,345.955,,1162.938,28.4224,0.28826,28.826,28.1153
1173.684,79.613,86.0318,,1173.684,295.239,307.404,,1173.684,26.9656,0.279866,27.9866,28.5048
1184.43,70.963,75.9979,,1184.43,255.181,264.288,,1184.43,27.8089,0.287557,28.7557,28.6188
1195.177,61.379,65.846,,1195.177,220.372,233.904,,1195.177,27.8524,0.281509,28.1509,28.0957
1205.923,56.511,59.3356,,1205.923,216.735,224.26,,1205.923,26.0738,0.264584,26.4584,27.6947
1216.669,43.198,47.1386,,1216.669,185.106,198.968,,1216.669,23.3369,0.236916,23.6916,25.3796
1227.415,32.099,38.2543,,1227.415,116.599,134.267,,1227.415,27.5294,0.284911,28.4911,25.2759
1238.161,17.879,21.5626,,1238.161,88.33,97.3703,,1238.161,20.2411,0.221449,22.1449,26.0541
1242.586,12.473,14.7733,,1242.586,79.058,86.0609,,1242.586,15.777,0.171661,17.1661,

File: schreiberglass-Dunkel_Kobaltblau_7882.csv
wavelength_nm,intensity,intensity_smoothed,,wavelength_nm2,intensity_i0,intensity_i0_smoothed,,wavelength_nm3,,transmission,transmission_perc,transmission_perc_smoothed
173.232,1.319,#N/A,,173.232,19.372,#N/A,,173.232,6.8088,#N/A,#N/A,#N/A
182.226,7.622,7.8,,182.226,39.142,36.0714,,182.226,19.4727,0.216238,21.6238,#N/A
191.22,14.531,13.6712,,191.22,32.595,32.9671,,191.22,44.5805,0.414692,41.4692,29.589
200.214,9.258,10.5563,,200.214,33.229,32.0517,,200.214,27.8612,0.329351,32.9351,40.2732
209.208,15.348,16.0068,,209.208,42.499,40.6429,,209.208,36.1138,0.39384,39.384,32.6717
218.203,9.712,9.56174,,218.203,39.86,36.9478,,218.203,24.3653,0.258791,25.8791,31.6508
227.197,15.621,13.0113,,227.197,41.039,34.9444,,227.197,38.0638,0.372344,37.2344,25.1413
236.191,11.257,14.8501,,236.191,38.855,38.0541,,236.191,28.9718,0.390236,39.0236,33.4909
245.185,16.62,15.8238,,245.185,60.852,56.5664,,245.185,27.3122,0.279738,27.9738,29.6105
254.158,16.62,14.6298,,254.158,81.031,74.5507,,254.158,20.5107,0.19624,19.624,24.1108
263.066,25.983,20.837,,263.066,84.028,82.2669,,263.066,30.9218,0.253286,25.3286,23.7896
271.999,26.073,23.0175,,271.999,87.661,85.1956,,271.999,29.743,0.270172,27.0172,26.2937
280.958,20.709,17.8469,,280.958,82.385,83.2013,,280.958,25.1369,0.214503,21.4503,24.824
289.943,19.527,19.1593,,289.943,81.564,82.6769,,289.943,23.9407,0.231737,23.1737,21.2206
298.952,18.254,20.801,,298.952,81.833,83.2325,,298.952,22.3064,0.249914,24.9914,22.4378
307.987,17.799,17.2057,,307.987,76.557,83.2263,,307.987,23.2493,0.206734,20.6734,25.1576
317.047,19.981,19.1187,,317.047,90.917,88.1309,,317.047,21.9772,0.216935,21.6935,21.9242
326.132,20.889,19.6242,,326.132,83.823,84.635,,326.132,24.9204,0.231869,23.1869,23.2461
335.243,25.616,24.6499,,335.243,85.728,84.8491,,335.243,29.8806,0.290515,29.0515,25.7002
344.379,24.343,21.3598,,344.379,90.361,88.9045,,344.379,26.9397,0.240255,24.0255,26.0761
353.539,24.619,22.3296,,353.539,94.915,90.7212,,353.539,25.9379,0.246134,24.6134,25.1139
362.725,36.021,29.6891,,362.725,105.458,101.011,,362.725,34.1567,0.293921,29.3921,26.4636
371.936,35,30.6017,,371.936,109.783,107.973,,371.936,31.8811,0.283419,28.3419,29.5289
381.171,37.594,39.5962,,381.171,115.883,116.945,,381.171,32.4413,0.33859,33.859,31.8869
390.432,55.062,47.8799,,390.432,133.324,125.547,,390.432,41.2994,0.381372,38.1372,33.4424
399.718,168.306,118.056,,399.718,271.618,209.861,,399.718,61.9642,0.562545,56.2545,45.1113
409.028,835.077,552.609,,409.028,1127.772,761.961,,409.028,74.0466,0.725246,72.5246,65.4305
418.364,4124.612,2829.52,,418.364,5969.824,4031.16,,418.364,69.091,0.701913,70.1913,72.0733
427.724,13454.561,10279,,427.724,22181.078,16466.7,,427.724,60.6578,0.624232,62.4232,66.4184
437.108,28611.037,23833.7,,437.108,53431.878,43460.3,,437.108,53.5468,0.548401,54.8401,58.4594
446.518,29583.88,32261.6,,446.518,58872.93,60832.2,,446.518,50.2504,0.530338,53.0338,54.0095
455.952,9838.529,14442.2,,455.952,24818.261,33641.5,,455.952,39.6423,0.429296,42.9296,47.7298
465.411,3300.758,4852.32,,465.411,10918.096,14323.3,,465.411,30.232,0.338772,33.8772,38.5179
474.895,1087.773,1578.27,,474.895,5687.357,6851.23,,474.895,19.1262,0.230362,23.0362,28.612
484.403,467.131,609.86,,484.403,4392.566,4623.26,,484.403,10.6346,0.131911,13.1911,17.9095
493.936,316.479,345.083,,493.936,5936.261,5285.32,,493.936,5.33129,0.0652908,6.52908,9.56826
503.493,274.491,289.524,,503.493,9922.655,8660.58,,503.493,2.76631,0.0334301,3.34301,4.79526
513.074,168.544,193.995,,513.074,14396.412,13119.2,,513.074,1.17074,0.0147871,1.47871,2.31508
522.681,104.33,124.073,,522.681,17479.123,16689.3,,522.681,0.596883,0.00743431,0.743431,1.07152
532.311,69.189,80.0143,,532.311,18600.635,18407,,532.311,0.371971,0.00434694,0.434694,0.556104
541.966,90.662,82.1894,,541.966,18427.819,18537.4,,541.966,0.491984,0.00443371,0.443371,0.411405
551.645,142.26,123.758,,551.645,17788.82,18021.6,,551.645,0.799716,0.00686718,0.686718,0.545077
561.348,160.355,163.757,,561.348,16724.541,17056.8,,561.348,0.958801,0.00960068,0.960068,0.849911
571.076,78.784,95.4848,,571.076,15394.578,15806.8,,571.076,0.511765,0.00604073,0.604073,0.811134
580.828,34.605,42.8313,,580.828,13821.505,14293.2,,580.828,0.250371,0.00299661,0.299661,0.433193
590.604,23.809,25.0874,,590.604,12169.884,12655.7,,590.604,0.195639,0.00198229,0.198229,0.238043
600.404,29.517,23.9285,,600.404,10382.228,10916.7,,600.404,0.284303,0.00219191,0.219191,0.202323
610.229,27.343,24.7558,,610.229,8596.69,9116.15,,610.229,0.318064,0.0027156,0.27156,0.245841
620.077,20.608,26.6717,,620.077,6975.767,7436.56,,620.077,0.295423,0.00358657,0.358657,0.336045
629.949,21.752,22.3538,,629.949,5497.842,5923.01,,629.949,0.395646,0.00377406,0.377406,0.354355
639.846,19.523,17.5557,,639.846,4321.008,4660.02,,639.846,0.451816,0.00376731,0.376731,0.368709
649.766,30.461,22.9355,,649.766,3325.06,3607.88,,649.766,0.916104,0.00635706,0.635706,0.469098
659.71,25.023,23.2233,,659.71,2514.192,2739.29,,659.71,0.99527,0.00847786,0.847786,0.797938
669.678,32.776,27.207,,669.678,1870.294,2049.93,,669.678,1.75245,0.0132722,1.32722,1.05808
679.67,38.033,32.1476,,679.67,1395.385,1530.38,,679.67,2.72563,0.0210063,2.10063,1.66893
689.686,93.379,75.2108,,689.686,1030.916,1131.37,,689.686,9.05787,0.0664777,6.64777,4.05542
699.726,168.517,147.683,,699.726,764.473,838.303,,699.726,22.0436,0.176169,17.6169,11.5914
709.789,198.733,196.054,,709.789,577.389,628.873,,709.789,34.4193,0.311754,31.1754,24.5656
719.876,187.298,188.382,,719.876,428.379,473.778,,719.876,43.7225,0.397617,39.7617,35.7026
729.987,141.331,153.495,,729.987,333.968,355.893,,729.987,42.3187,0.431296,43.1296,42.7715
740.121,112.005,121.615,,740.121,271.067,284.973,,740.121,41.32,0.426758,42.6758,43.1614
750.279,92.866,98.4835,,750.279,223.903,238.327,,750.279,41.476,0.413229,41.3229,42.3365
760.46,67.487,72.321,,760.46,181.555,197.796,,760.46,37.1717,0.365634,36.5634,39.2796
770.665,55.929,61.1932,,770.665,174.177,175.286,,770.665,32.1104,0.349106,34.9106,36.5561
780.894,45.978,52.2153,,780.894,155.909,157.51,,780.894,29.4903,0.331505,33.1505,33.5615
791.146,48.039,44.4666,,791.146,143.836,141.983,,791.146,33.3985,0.313183,31.3183,31.8306
801.421,37.758,37.4148,,801.421,122.665,127.915,,801.421,30.7814,0.292497,29.2497,30.394
811.72,36.922,39.0611,,811.72,128,126.885,,811.72,28.8453,0.307846,30.7846,30.6794
822.042,58.251,48.2876,,822.042,139.414,135.722,,822.042,41.7827,0.355783,35.5783,32.2099
832.387,88.489,77.5265,,832.387,198.763,181.776,,832.387,44.5199,0.426494,42.6494,39.4676
842.755,163.602,125.678,,842.755,318.202,257.623,,842.755,51.4145,0.487836,48.7836,44.9166
853.147,350.842,298.071,,853.147,680.258,570.882,,853.147,51.5748,0.522124,52.2124,50.9442
863.562,461.135,440.393,,863.562,914.45,865.153,,863.562,50.4276,0.509035,50.9035,51.6656
874,536.465,506.085,,874,1123.327,1042.42,,874,47.7568,0.48549,48.549,49.9062
884.461,689.754,646.396,,884.461,1549.531,1429.21,,884.461,44.5137,0.452274,45.2274,46.7992
894.946,674.748,700.925,,894.946,1601.912,1633.79,,894.946,42.1214,0.429019,42.9019,44.0485
905.453,442.794,511.257,,905.453,1154.569,1291.93,,905.453,38.3515,0.395731,39.5731,41.1994
915.983,264.05,309.698,,915.983,763.633,866.24,,915.983,34.5781,0.35752,35.752,37.6286
926.537,163.225,189.635,,926.537,538.752,601.135,,926.537,30.2969,0.315461,31.5461,33.6456
937.113,90.218,106.557,,937.113,371.776,416.575,,937.113,24.2668,0.255794,25.5794,28.5829
947.712,51.937,65.5278,,947.712,281.795,301.161,,947.712,18.4308,0.217584,21.7584,23.7167
958.334,37.565,45.1615,,958.334,232.081,239.784,,958.334,16.1862,0.188342,18.8342,19.7219
968.979,30.101,34.8822,,968.979,215.997,218.608,,968.979,13.9358,0.159565,15.9565,16.8977
979.646,28.272,27.6674,,979.646,214.269,212.805,,979.646,13.1946,0.130013,13.0013,13.7747
990.336,22.08,26.101,,990.336,255.716,241.973,,990.336,8.63458,0.107867,10.7867,12.2331
1001.049,24.977,23.7033,,1001.049,294.155,280.773,,1001.049,8.4911,0.0844217,8.44217,9.44226
1011.785,17.873,22.6228,,1011.785,372.129,345.901,,1011.785,4.8029,0.0654026,6.54026,8.08354
1022.543,23.677,21.494,,1022.543,511.912,472.99,,1022.543,4.62521,0.0454429,4.54429,4.98033
1033.324,16.207,17.4842,,1033.324,594.592,577.395,,1033.324,2.72573,0.0302812,3.02812,3.81073
1044.128,26.191,22.6299,,1044.128,615.351,612.954,,1044.128,4.25627,0.0369194,3.69194,3.20364
1054.954,15.536,14.4758,,1054.954,615.37,617.33,,1054.954,2.52466,0.0234491,2.34491,3.07894
1065.802,16.425,18.3334,,1065.802,591.191,598.552,,1065.802,2.77829,0.0306296,3.06296,2.83794
1076.673,18.404,22.0407,,1076.673,560.996,570.992,,1076.673,3.28059,0.0386008,3.86008,3.00014
1087.567,15.38,15.6505,,1087.567,529.782,540.523,,1087.567,2.90308,0.0289545,2.89545,3.07571
1098.461,19.718,16.4027,,1098.461,506.368,516.098,,1098.461,3.89401,0.0317821,3.17821,2.83033
1109.207,21.962,20.3596,,1109.207,472.114,482.857,,1109.207,4.65184,0.0421648,4.21648,3.57823
1119.954,18.477,15.6559,,1119.954,442.11,453.073,,1119.954,4.17928,0.0345549,3.45549,3.72496
1130.7,17.08,18.2787,,1130.7,399.264,413.369,,1130.7,4.27787,0.0442189,4.42189,4.16302
1141.446,15.589,16.2571,,1141.446,355.303,369.536,,1141.446,4.38752,0.0439931,4.39931,4.04251
1152.192,21.914,17.4457,,1152.192,312.68,325.133,,1152.192,7.00844,0.053657,5.3657,4.6099
1162.938,18.963,16.8247,,1162.938,272.396,284.362,,1162.938,6.96156,0.0591666,5.91666,5.61577
1173.684,12.283,12.7976,,1173.684,232.816,247.141,,1173.684,5.27584,0.0517825,5.17825,5.79213
1184.43,19.327,14.596,,1184.43,212.854,220.644,,1184.43,9.07993,0.0661516,6.61516,6.09396
1195.177,14.007,15.4872,,1195.177,189.605,196.165,,1195.177,7.38746,0.0789501,7.89501,8.15746
1205.923,29.594,27.7188,,1205.923,192.441,190.795,,1205.923,15.3782,0.14528,14.528,10.5014
1216.669,29.728,32.9894,,1216.669,160.555,172.299,,1216.669,18.5158,0.191466,19.1466,17.6806
1227.415,15.137,19.9486,,1227.415,108.596,121.133,,1227.415,13.9388,0.164684,16.4684,17.7282
1238.161,12.277,11.6238,,1238.161,81.216,91.0173,,1238.161,15.1165,0.12771,12.771,13.0786
1242.586,3.248,10.6751,,1242.586,69.901,79.3938,,1242.586,4.64657,0.134458,13.4458,