Folder: lasersafe_materials/public_html/data/backup (part 8)

File: plexiglas_3C01.csv
wavelength_nm,intensity,intensity_smoothed,,wavelength_nm2,intensity_i0,intensity_i0_smoothed,,wavelength_nm3,,transmission,transmission_perc,transmission_perc_smoothed
173.232,17.358,#N/A,,173.232,26.786,#N/A,,173.232,64.8025,#N/A,#N/A,#N/A
182.226,11.583,16.1766,,182.226,35.237,34.8089,,182.226,32.8717,0.464726,46.4726,#N/A
191.22,19.125,16.3033,,191.22,34.688,38.2618,,191.22,55.1343,0.426098,42.6098,36.8745
200.214,13.577,11.8764,,200.214,34.593,33.7256,,200.214,39.2478,0.352147,35.2147,45.2524
209.208,15.756,17.5161,,209.208,39.771,35.6535,,209.208,39.6168,0.491287,49.1287,47.1219
218.203,16.572,15.6699,,218.203,37.039,33.577,,218.203,44.742,0.466687,46.6687,43.2275
227.197,14.66,17.8163,,227.197,37.035,37.3027,,227.197,39.5842,0.477614,47.7614,49.0811
236.191,16.657,13.2026,,236.191,27.485,31.4748,,236.191,60.604,0.419464,41.9464,40.3413
245.185,14.017,16.5065,,245.185,63.117,56.0939,,245.185,22.208,0.294266,29.4266,37.0821
254.158,15.378,17.3406,,254.158,77.748,75.9505,,254.158,19.7793,0.228314,22.8314,25.8856
263.066,14.556,16.0398,,263.066,83.107,83.5233,,263.066,17.5148,0.19204,19.204,21.7884
271.999,18.826,17.928,,271.999,80.375,82.205,,271.999,23.4227,0.218089,21.8089,19.8981
280.958,15.368,16.48,,280.958,85.279,82.4355,,280.958,18.0208,0.199914,19.9914,22.2127
289.943,15.273,17.3544,,289.943,89.91,87.607,,289.943,16.987,0.198094,19.8094,21.103
298.952,18.451,17.8662,,298.952,84.904,83.8708,,298.952,21.7316,0.213021,21.3021,21.555
307.987,19.72,19.9677,,307.987,79.807,85.0579,,307.987,24.7096,0.234754,23.4754,22.2407
317.047,19.262,22.4715,,317.047,83.347,85.6554,,317.047,23.1106,0.262348,26.2348,26.7472
326.132,19.258,20.8473,,326.132,84.341,86.2212,,326.132,22.8335,0.241788,24.1788,25.0523
335.243,19.526,23.5676,,335.243,93.698,90.7122,,335.243,20.8393,0.259807,25.9807,24.2935
344.379,18.522,20.5624,,344.379,90.874,88.2733,,344.379,20.3821,0.23294,23.294,23.0865
353.539,16.584,19.1952,,353.539,93.625,92.69,,353.539,17.7132,0.20709,20.709,22.961
362.725,19.724,19.8636,,362.725,93.62,95.0673,,362.725,21.0681,0.208943,20.8943,19.3231
371.936,18.99,22.4731,,371.936,104.25,101.025,,371.936,18.2158,0.222452,22.2452,21.9752
381.171,20.993,22.5631,,381.171,112.399,109.069,,381.171,18.6772,0.20687,20.687,21.2391
390.432,26.196,24.3837,,390.432,126.82,117.99,,390.432,20.656,0.20666,20.666,21.6912
399.718,28.255,23.0283,,399.718,255.638,197.26,,399.718,11.0527,0.116741,11.6741,15.9143
409.028,26.132,23.3226,,409.028,1209.068,790.336,,409.028,2.16133,0.0295097,2.95097,7.38305
418.364,22.997,23.4387,,418.364,6943.145,4622.08,,418.364,0.331219,0.00507102,0.507102,1.4078
427.724,23.343,22.0695,,427.724,26342.847,19491.6,,427.724,0.0886123,0.00113226,0.113226,0.265981
437.108,27.282,24.3628,,437.108,63776.327,52378.6,,437.108,0.0427776,0.000465129,0.0465129,0.0724464
446.518,17.34,19.2283,,446.518,61778.432,62848.5,,446.518,0.028068,0.000305947,0.0305947,0.0385429
455.952,25.633,21.421,,455.952,29348.811,39040.2,,455.952,0.0873391,0.00054869,0.054869,0.0355907
465.411,14.416,17.947,,465.411,12896.067,16910.4,,465.411,0.111786,0.0010613,0.10613,0.0833106
474.895,17.829,19.0221,,474.895,6668.058,8047.41,,474.895,0.267379,0.00236376,0.236376,0.171844
484.403,14.425,18.108,,484.403,5161.596,5415.69,,484.403,0.279468,0.00334362,0.334362,0.289989
493.936,24.499,19.789,,493.936,7190.779,6348.99,,493.936,0.3407,0.00311687,0.311687,0.317208
503.493,14.352,19.7513,,503.493,12295.73,10671.8,,503.493,0.116723,0.00185079,0.185079,0.263316
513.074,19.805,18.9976,,513.074,17987.804,16371.3,,513.074,0.110102,0.00116042,0.116042,0.14251
522.681,20.111,18.6225,,522.681,21946.814,20907.2,,522.681,0.0916352,0.000890725,0.0890725,0.101769
532.311,16.157,18.9134,,532.311,23496.634,23215.1,,532.311,0.068763,0.000814704,0.0814704,0.0880079
541.966,22.81,22.281,,541.966,23404.455,23474.1,,541.966,0.0974601,0.000949173,0.0949173,0.0847324
551.645,18.617,20.7894,,551.645,22620.916,22902.4,,551.645,0.0822999,0.000907739,0.0907739,0.0955038
561.348,17.541,23.3953,,561.348,21446.354,21819.4,,561.348,0.0817901,0.00107223,0.107223,0.104812
571.076,22.243,21.0218,,571.076,19752.474,20281.2,,571.076,0.112609,0.00103652,0.103652,0.0977599
580.828,24.493,22.8969,,580.828,17905.662,18453.6,,580.828,0.136789,0.00124078,0.124078,0.113813
590.604,82.98,57.7446,,590.604,15779.739,16404.7,,590.604,0.525864,0.00352001,0.352001,0.202989
600.404,386.703,272.045,,600.404,13544.34,14207.5,,600.404,2.85509,0.019148,1.9148,0.94918
610.229,1178.628,908.9,,610.229,11237.642,11910.8,,610.229,10.4882,0.0763092,7.63092,4.31561
620.077,2299.42,1967.25,,620.077,9110.589,9742.29,,620.077,25.239,0.201929,20.1929,13.3756
629.949,3218.89,2986.8,,629.949,7253.439,7787.88,,629.949,44.3774,0.383519,38.3519,29.0396
639.846,3557.981,3508.47,,639.846,5684.101,6127.03,,639.846,62.5953,0.572622,57.2622,47.9907
649.766,3347.716,3442.99,,649.766,4369.577,4738.13,,649.766,76.6142,0.726655,72.6655,65.2856
659.71,2824.104,2992.57,,659.71,3288.685,3591.12,,659.71,85.8734,0.833325,83.3325,78.2523
669.678,2213.861,2386.87,,669.678,2442.874,2674.65,,669.678,90.6253,0.892404,89.2404,86.5795
679.67,1677.744,1827.91,,679.67,1818.585,1987.78,,679.67,92.2555,0.919576,91.9576,90.7243
689.686,1234.331,1352.37,,689.686,1333.341,1461.62,,689.686,92.5743,0.925256,92.5256,92.2676
699.726,889.139,982.399,,699.726,971.408,1066.88,,699.726,91.531,0.920811,92.0811,92.4323
709.789,644.346,711.163,,709.789,725.356,789.904,,709.789,88.8317,0.900315,90.0315,90.9227
719.876,452.727,496.624,,719.876,528.67,580.262,,719.876,85.6351,0.855862,85.5862,87.5873
729.987,315.524,353.722,,729.987,392.852,429.075,,729.987,80.3163,0.824384,82.4384,84.3528
740.121,229.662,251.091,,740.121,301.501,327.788,,740.121,76.1729,0.766017,76.6017,79.5634
750.279,165.126,184.383,,750.279,240.537,254.717,,750.279,68.6489,0.723872,72.3872,75.2476
760.46,123.452,138.111,,760.46,198.468,211.289,,760.46,62.2025,0.653659,65.3659,68.6312
770.665,84.927,99.0993,,770.665,168.205,179.624,,770.665,50.4902,0.551703,55.1703,60.4643
780.894,75.46,78.6695,,780.894,141.966,151.239,,780.894,53.1536,0.520167,52.0167,53.4
791.146,61.61,57.8679,,791.146,132.738,137.751,,791.146,46.4147,0.42009,42.009,46.8877
801.421,43.831,49.4592,,801.421,125.872,125.831,,801.421,34.8219,0.393061,39.3061,42.6929
811.72,37.788,43.9324,,811.72,122.787,122.308,,811.72,30.7752,0.359195,35.9195,37.0595
822.042,32.176,34.7223,,822.042,143.609,135.905,,822.042,22.4053,0.255489,25.5489,29.8702
832.387,30.815,30.6665,,832.387,213.119,194.586,,832.387,14.4591,0.157599,15.7599,20.3937
842.755,23.928,25.3237,,842.755,374.652,296.792,,842.755,6.38673,0.0853248,8.53248,13.0618
853.147,28.779,29.4518,,853.147,839.505,701.563,,853.147,3.42809,0.0419802,4.19802,6.22515
863.562,23.093,21.2004,,863.562,1167.416,1089.33,,863.562,1.97813,0.0194619,1.94619,2.7391
874,18.227,16.7426,,874,1458.677,1350.71,,874,1.24956,0.0123954,1.23954,1.63921
884.461,17.111,19.1379,,884.461,2008.756,1856.17,,884.461,0.851821,0.0103104,1.03104,1.24419
894.946,19.424,21.0566,,894.946,2096.312,2136.09,,894.946,0.92658,0.00985755,0.985755,0.9256
905.453,17.84,17.3519,,905.453,1501.394,1682.34,,905.453,1.18823,0.0103141,1.03141,0.962949
915.983,16.492,18.0616,,915.983,988.66,1118.11,,915.983,1.66812,0.0161536,1.61536,1.43712
926.537,17.527,18.6992,,926.537,680.557,763.298,,926.537,2.57539,0.0244979,2.44979,2.02844
937.113,21.013,20.3233,,937.113,451.536,508.519,,937.113,4.65367,0.0399656,3.99656,3.24486
947.712,24.767,20.8104,,947.712,329.143,359.08,,947.712,7.52469,0.0579546,5.79546,4.6424
958.334,26.153,20.109,,958.334,270.377,284.768,,958.334,9.67279,0.0706154,7.06154,6.57286
968.979,16.623,21.6095,,968.979,245.6,250.203,,968.979,6.76832,0.0863677,8.63677,8.56277
979.646,23.997,20.9061,,979.646,261.812,255.071,,979.646,9.16574,0.0819617,8.19617,7.82927
990.336,23.273,23.6008,,990.336,304.103,287.506,,990.336,7.653,0.0820878,8.20878,8.41533
1001.049,26.905,25.4037,,1001.049,360.561,344.59,,1001.049,7.46198,0.0737215,7.37215,7.52282
1011.785,24.347,26.6622,,1011.785,460.821,427.638,,1011.785,5.2834,0.0623477,6.23477,6.79115
1022.543,25.871,26.2296,,1022.543,661.52,601.668,,1022.543,3.91084,0.0435948,4.35948,5.12077
1033.324,20.84,21.7778,,1033.324,766.018,742.532,,1033.324,2.72056,0.0293291,2.93291,3.58898
1044.128,19.797,20.567,,1044.128,790.858,786.687,,1044.128,2.50323,0.0261438,2.61438,2.80663
1054.954,11.47,16.0182,,1054.954,785.495,789.002,,1054.954,1.46023,0.0203019,2.03019,2.39603
1065.802,19.402,18.0507,,1065.802,755.742,768.407,,1065.802,2.56728,0.023491,2.3491,2.06705
1076.673,18.047,16.214,,1076.673,725.053,733.084,,1076.673,2.48906,0.0221175,2.21175,2.26189
1087.567,18.493,21.0427,,1087.567,681.516,691.466,,1087.567,2.71351,0.030432,3.0432,2.58327
1098.461,10.287,12.8412,,1098.461,651.492,658.739,,1098.461,1.57899,0.0194937,1.94937,2.36049
1109.207,14.061,15.2429,,1109.207,600.16,617.068,,1109.207,2.34288,0.0247022,2.47022,2.05729
1119.954,14.633,12.3327,,1119.954,551.335,571.208,,1119.954,2.6541,0.0215906,2.15906,2.35631
1130.7,12.912,16.8903,,1130.7,503.471,516.163,,1130.7,2.5646,0.0327228,3.27228,2.63951
1141.446,14.441,10.0167,,1141.446,436.474,453.839,,1141.446,3.30856,0.022071,2.2071,2.32323
1152.192,13.948,12.1564,,1152.192,381.618,401.382,,1152.192,3.65496,0.0302863,3.02863,2.66141
1162.938,11.16,13.8568,,1162.938,332.811,345.955,,1162.938,3.35325,0.0400537,4.00537,3.34218
1173.684,12.988,15.5086,,1173.684,295.239,307.404,,1173.684,4.39915,0.0504502,5.04502,4.25518
1184.43,14.163,10.1693,,1184.43,255.181,264.288,,1184.43,5.55018,0.038478,3.8478,3.89124
1195.177,13.326,13.6694,,1195.177,220.372,233.904,,1195.177,6.04705,0.0584401,5.84401,4.76956
1205.923,14.937,10.181,,1205.923,216.735,224.26,,1205.923,6.89183,0.0453981,4.53981,4.79209
1216.669,15.917,14.2574,,1216.669,185.106,198.968,,1216.669,8.59886,0.071657,7.1657,6.62604
1227.415,13.822,14.5351,,1227.415,116.599,134.267,,1227.415,11.8543,0.108255,10.8255,8.92609
1238.161,22.667,20.283,,1238.161,88.33,97.3703,,1238.161,25.6617,0.208307,20.8307,14.669
1242.586,22.486,20.0965,,1242.586,79.058,86.0609,,1242.586,28.4424,0.233515,23.3515,

File: plexiglas_3H55.csv
wavelength_nm,intensity,intensity_smoothed,,wavelength_nm2,intensity_i0,intensity_i0_smoothed,,wavelength_nm3,,transmission,transmission_perc,transmission_perc_smoothed
173.232,4.4,#N/A,,173.232,26.786,#N/A,,173.232,16.4265,#N/A,#N/A,#N/A
182.226,17.353,11.6602,,182.226,35.237,34.8089,,182.226,49.2465,0.334977,33.4977,#N/A
191.22,12.715,11.4058,,191.22,34.688,38.2618,,191.22,36.6553,0.298098,29.8098,30.8609
200.214,11.168,10.4919,,200.214,34.593,33.7256,,200.214,32.284,0.311097,31.1097,33.5374
209.208,19.529,16.1659,,209.208,39.771,35.6535,,209.208,49.1036,0.453418,45.3418,39.4881
218.203,16.255,16.7428,,218.203,37.039,33.577,,218.203,43.8862,0.498639,49.8639,50.3409
227.197,13.434,14.9709,,227.197,37.035,37.3027,,227.197,36.2738,0.401335,40.1335,42.121
236.191,17.796,15.2146,,236.191,27.485,31.4748,,236.191,64.748,0.483388,48.3388,39.1549
245.185,4.521,8.95834,,245.185,63.117,56.0939,,245.185,7.16289,0.159703,15.9703,39.7079
254.158,11.246,14.2588,,254.158,77.748,75.9505,,254.158,14.4647,0.187738,18.7738,16.5564
263.066,14.335,15.2023,,263.066,83.107,83.5233,,263.066,17.2488,0.182013,18.2013,17.5947
271.999,12.423,13.7855,,271.999,80.375,82.205,,271.999,15.4563,0.167697,16.7697,17.4706
280.958,13.785,11.6299,,280.958,85.279,82.4355,,280.958,16.1646,0.141079,14.1079,15.6045
289.943,13.691,13.4094,,289.943,89.91,87.607,,289.943,15.2274,0.153063,15.3063,15.3974
298.952,18.961,14.7869,,298.952,84.904,83.8708,,298.952,22.3323,0.176306,17.6306,17.5784
307.987,13.595,17.1757,,307.987,79.807,85.0579,,307.987,17.0348,0.20193,20.193,20.3817
317.047,12.774,14.2989,,317.047,83.347,85.6554,,317.047,15.3263,0.166935,16.6935,17.9636
326.132,9.147,14.9917,,326.132,84.341,86.2212,,326.132,10.8453,0.173875,17.3875,18.4391
335.243,16.961,14.2426,,335.243,93.698,90.7122,,335.243,18.1018,0.157009,15.7009,13.9791
344.379,12.956,13.2606,,344.379,90.874,88.2733,,344.379,14.2571,0.150222,15.0222,15.1509
353.539,13.632,13.2357,,353.539,93.625,92.69,,353.539,14.5602,0.142796,14.2796,14.5456
362.725,11.629,14.2896,,362.725,93.62,95.0673,,362.725,12.4215,0.15031,15.031,16.4022
371.936,20.193,16.9025,,371.936,104.25,101.025,,371.936,19.3698,0.167311,16.7311,13.6727
381.171,12.517,12.906,,381.171,112.399,109.069,,381.171,11.1362,0.118329,11.8329,15.1236
390.432,15.032,16.3938,,390.432,126.82,117.99,,390.432,11.853,0.138943,13.8943,13.256
399.718,17.857,15.8721,,399.718,255.638,197.26,,399.718,6.98527,0.0804629,8.04629,11.0998
409.028,32.125,27.9334,,409.028,1209.068,790.336,,409.028,2.65701,0.0353436,3.53436,5.90248
418.364,69.952,57.0177,,418.364,6943.145,4622.08,,418.364,1.0075,0.0123359,1.23359,2.17596
427.724,87.885,82.1394,,427.724,26342.847,19491.6,,427.724,0.33362,0.00421409,0.421409,0.7675
437.108,63.057,72.1701,,437.108,63776.327,52378.6,,437.108,0.0988721,0.00137786,0.137786,0.261539
446.518,22.66,33.1864,,446.518,61778.432,62848.5,,446.518,0.0366795,0.000528038,0.0528038,0.0908703
455.952,13.319,16.6502,,455.952,29348.811,39040.2,,455.952,0.0453817,0.000426489,0.0426489,0.0428781
465.411,13.515,11.6473,,465.411,12896.067,16910.4,,465.411,0.104799,0.000688765,0.0688765,0.0571943
474.895,16.997,15.2821,,474.895,6668.058,8047.41,,474.895,0.254902,0.00189901,0.189901,0.131804
484.403,14.213,15.8935,,484.403,5161.596,5415.69,,484.403,0.275361,0.00293472,0.293472,0.283068
493.936,17.267,17.1746,,493.936,7190.779,6348.99,,493.936,0.240127,0.0027051,0.27051,0.281429
503.493,14.219,11.9194,,503.493,12295.73,10671.8,,503.493,0.115642,0.0011169,0.11169,0.196228
513.074,10.674,9.1046,,513.074,17987.804,16371.3,,513.074,0.0593402,0.000556131,0.0556131,0.0793559
522.681,17.661,15.5688,,522.681,21946.814,20907.2,,522.681,0.0804718,0.000744663,0.0744663,0.0722749
532.311,12.135,13.1576,,532.311,23496.634,23215.1,,532.311,0.0516457,0.000566767,0.0566767,0.0622106
541.966,12.975,14.8907,,541.966,23404.455,23474.1,,541.966,0.0554382,0.000634347,0.0634347,0.0619513
551.645,18.13,15.0303,,551.645,22620.916,22902.4,,551.645,0.0801471,0.000656276,0.0656276,0.0684679
561.348,56.531,40.8068,,561.348,21446.354,21819.4,,561.348,0.263593,0.00187021,0.187021,0.117672
571.076,227.226,158.334,,571.076,19752.474,20281.2,,571.076,1.15037,0.00780695,0.780695,0.410539
580.828,843.325,628.871,,580.828,17905.662,18453.6,,580.828,4.70982,0.0340784,3.40784,1.85913
590.604,2009.446,1632.68,,590.604,15779.739,16404.7,,590.604,12.7343,0.0995251,9.95251,6.31076
600.404,3310.25,2941.99,,600.404,13544.34,14207.5,,600.404,24.4401,0.207074,20.7074,15.0884
610.229,4150.961,3955.97,,610.229,11237.642,11910.8,,610.229,36.938,0.332134,33.2134,26.9569
620.077,4296.447,4303.7,,620.077,9110.589,9742.29,,620.077,47.1588,0.441755,44.1755,38.8912
629.949,3969.025,4085.31,,629.949,7253.439,7787.88,,629.949,54.7192,0.524573,52.4573,48.4542
639.846,3310.183,3512.62,,639.846,5684.101,6127.03,,639.846,58.2358,0.573299,57.3299,55.1874
649.766,2635.838,2834.24,,649.766,4369.577,4738.13,,649.766,60.3225,0.598178,59.8178,58.6475
659.71,2010.841,2191.32,,659.71,3288.685,3591.12,,659.71,61.1442,0.610205,61.0205,60.3572
669.678,1504.028,1644.6,,669.678,2442.874,2674.65,,669.678,61.568,0.614885,61.4885,61.2626
679.67,1107.29,1221.07,,679.67,1818.585,1987.78,,679.67,60.8874,0.614291,61.4291,61.6187
689.686,806.1,891.838,,689.686,1333.341,1461.62,,689.686,60.4572,0.610173,61.0173,61.1647
699.726,579.03,643.158,,699.726,971.408,1066.88,,699.726,59.6073,0.602837,60.2837,60.4294
709.789,418.733,460.147,,709.789,725.356,789.904,,709.789,57.7279,0.582536,58.2536,59.117
719.876,288.083,324.692,,719.876,528.67,580.262,,719.876,54.492,0.559561,55.9561,57.007
729.987,205.501,229.427,,729.987,392.852,429.075,,729.987,52.31,0.534703,53.4703,54.8189
740.121,152.358,169.429,,740.121,301.501,327.788,,740.121,50.5332,0.516886,51.6886,52.5934
750.279,107.347,118.904,,750.279,240.537,254.717,,750.279,44.6281,0.466809,46.6809,49.3455
760.46,83.128,85.9563,,760.46,198.468,211.289,,760.46,41.8848,0.406819,40.6819,43.7381
770.665,61.031,67.8305,,770.665,168.205,179.624,,770.665,36.2837,0.377624,37.7624,40.0518
780.894,43.413,50.7225,,780.894,141.966,151.239,,780.894,30.5799,0.33538,33.538,35.16
791.146,43.323,42.5147,,791.146,132.738,137.751,,791.146,32.638,0.308634,30.8634,31.6964
801.421,33.344,34.2072,,801.421,125.872,125.831,,801.421,26.4904,0.271851,27.1851,28.6631
811.72,26.712,29.4511,,811.72,122.787,122.308,,811.72,21.7547,0.240794,24.0794,24.3988
822.042,25.046,26.5639,,822.042,143.609,135.905,,822.042,17.4404,0.195459,19.5459,21.6968
832.387,24.277,24.506,,832.387,213.119,194.586,,832.387,11.3913,0.125939,12.5939,15.787
842.755,20.753,19.6425,,842.755,374.652,296.792,,842.755,5.53927,0.0661829,6.61829,9.79606
853.147,20.689,23.5463,,853.147,839.505,701.563,,853.147,2.46443,0.0335626,3.35626,5.18511
863.562,20.565,16.4667,,863.562,1167.416,1089.33,,863.562,1.76158,0.0151164,1.51164,2.22419
874,11.157,13.0223,,874,1458.677,1350.71,,874,0.764871,0.0096411,0.96411,1.26057
884.461,3.567,7.42497,,884.461,2008.756,1856.17,,884.461,0.177573,0.00400016,0.400016,0.667214
894.946,12.129,11.0558,,894.946,2096.312,2136.09,,894.946,0.578588,0.00517572,0.517572,0.402599
905.453,16.957,17.1949,,905.453,1501.394,1682.34,,905.453,1.12942,0.0102208,1.02208,0.706671
915.983,11.278,11.8761,,915.983,988.66,1118.11,,915.983,1.14074,0.0106215,1.06215,1.12026
926.537,11.93,14.633,,926.537,680.557,763.298,,926.537,1.75298,0.0191707,1.91707,1.51255
937.113,14.575,13.457,,937.113,451.536,508.519,,937.113,3.22787,0.0264632,2.64632,2.28589
947.712,18.214,14.996,,947.712,329.143,359.08,,947.712,5.53376,0.0417622,4.17622,3.55646
958.334,9.028,14.3197,,958.334,270.377,284.768,,958.334,3.33904,0.0502856,5.02856,4.87284
968.979,11.925,13.1737,,968.979,245.6,250.203,,968.979,4.85546,0.0526519,5.26519,5.07092
979.646,10.268,12.8335,,979.646,261.812,255.071,,979.646,3.9219,0.0503133,5.03133,5.68405
990.336,15.512,12.1883,,990.336,304.103,287.506,,990.336,5.1009,0.0423933,4.23933,4.79578
1001.049,16.29,11.9983,,1001.049,360.561,344.59,,1001.049,4.51796,0.034819,3.4819,4.02773
1011.785,15.33,11.5741,,1011.785,460.821,427.638,,1011.785,3.32667,0.0270652,2.70652,3.80015
1022.543,15.266,14.015,,1022.543,661.52,601.668,,1022.543,2.30772,0.0232935,2.32935,3.11359
1033.324,19.552,18.5145,,1033.324,766.018,742.532,,1033.324,2.55242,0.0249343,2.49343,2.31515
1044.128,17.187,16.413,,1044.128,790.858,786.687,,1044.128,2.17321,0.0208634,2.08634,2.20217
1054.954,16.896,15.6982,,1054.954,785.495,789.002,,1054.954,2.151,0.0198963,1.98963,2.02467
1065.802,15.132,14.803,,1065.802,755.742,768.407,,1065.802,2.00227,0.0192645,1.92645,2.04177
1076.673,13.348,11.1524,,1076.673,725.053,733.084,,1076.673,1.84097,0.0152129,1.52129,1.74198
1087.567,11.542,11.0983,,1087.567,681.516,691.466,,1087.567,1.69358,0.0160504,1.60504,1.70736
1098.461,9.439,7.99312,,1098.461,651.492,658.739,,1098.461,1.44883,0.012134,1.2134,1.30821
1109.207,9.584,10.7389,,1109.207,600.16,617.068,,1109.207,1.59691,0.0174031,1.74031,1.53122
1119.954,13.518,11.7306,,1119.954,551.335,571.208,,1119.954,2.45187,0.0205365,2.05365,1.8709
1130.7,7.879,8.77179,,1130.7,503.471,516.163,,1130.7,1.56494,0.0169942,1.69942,1.97682
1141.446,7.208,8.21378,,1141.446,436.474,453.839,,1141.446,1.65142,0.0180984,1.80984,1.9825
1152.192,11.598,8.08664,,1152.192,381.618,401.382,,1152.192,3.03916,0.020147,2.0147,1.86858
1162.938,23.868,19.0915,,1162.938,332.811,345.955,,1162.938,7.17164,0.055185,5.5185,3.48426
1173.684,20.382,19.1636,,1173.684,295.239,307.404,,1173.684,6.90356,0.0623403,6.23403,5.67162
1184.43,33.054,28.3054,,1184.43,255.181,264.288,,1184.43,12.9532,0.1071,10.71,7.88198
1195.177,35.618,33.5207,,1195.177,220.372,233.904,,1195.177,16.1627,0.14331,14.331,12.04
1205.923,43.084,37.2069,,1205.923,216.735,224.26,,1205.923,19.8787,0.16591,16.591,15.2386
1216.669,38.102,38.0399,,1216.669,185.106,198.968,,1216.669,20.5839,0.191186,19.1186,18.5584
1227.415,29.96,34.6985,,1227.415,116.599,134.267,,1227.415,25.6949,0.258429,25.8429,22.5782
1238.161,27.496,27.855,,1238.161,88.33,97.3703,,1238.161,31.1287,0.286073,28.6073,26.9402
1242.586,22.398,24.7609,,1242.586,79.058,86.0609,,1242.586,28.3311,0.287714,28.7714,