Folder: lasersafe_materials/public_html/data/backup (part 7)

File: plexiglas_2C01.csv
wavelength_nm,intensity,intensity_smoothed,,wavelength_nm2,intensity_i0,intensity_i0_smoothed,,wavelength_nm3,,transmission,transmission_perc,transmission_perc_smoothed
173.232,14.943,#N/A,,173.232,26.786,#N/A,,173.232,55.7866,#N/A,#N/A,#N/A
182.226,17.124,15.8688,,182.226,35.237,34.8089,,182.226,48.5966,0.455885,45.5885,#N/A
191.22,15.214,16.9435,,191.22,34.688,38.2618,,191.22,43.8595,0.442831,44.2831,42.9508
200.214,14.485,17.268,,200.214,34.593,33.7256,,200.214,41.8726,0.512015,51.2015,51.2677
209.208,19.303,18.1975,,209.208,39.771,35.6535,,209.208,48.5354,0.510398,51.0398,46.1213
218.203,18.301,20.5864,,218.203,37.039,33.577,,218.203,49.4101,0.61311,61.311,55.4927
227.197,14.755,13.8112,,227.197,37.035,37.3027,,227.197,39.8407,0.370248,37.0248,50.7393
236.191,14.39,14.9872,,236.191,27.485,31.4748,,236.191,52.3558,0.476165,47.6165,42.09
245.185,33.661,29.7743,,245.185,63.117,56.0939,,245.185,53.3311,0.530794,53.0794,51.4354
254.158,44.478,43.2559,,254.158,77.748,75.9505,,254.158,57.2079,0.569528,56.9528,55.0454
263.066,49.659,48.8743,,263.066,83.107,83.5233,,263.066,59.7531,0.585157,58.5157,57.0352
271.999,49.748,46.9151,,271.999,80.375,82.205,,271.999,61.8949,0.570708,57.0708,56.9579
280.958,44.474,46.3211,,280.958,85.279,82.4355,,280.958,52.1512,0.561907,56.1907,58.3011
289.943,48.836,49.7835,,289.943,89.91,87.607,,289.943,54.3165,0.56826,56.826,54.5924
298.952,52.017,50.5146,,298.952,84.904,83.8708,,298.952,61.2657,0.60229,60.229,58.2094
307.987,42.47,46.4706,,307.987,79.807,85.0579,,307.987,53.2159,0.546341,54.6341,58.0593
317.047,47.923,44.6406,,317.047,83.347,85.6554,,317.047,57.4982,0.521165,52.1165,54.1452
326.132,51.739,50.6466,,326.132,84.341,86.2212,,326.132,61.345,0.587402,58.7402,54.0576
335.243,53.92,51.2926,,335.243,93.698,90.7122,,335.243,57.5466,0.565443,56.5443,57.7435
344.379,54.1,52.69,,344.379,90.874,88.2733,,344.379,59.533,0.596897,59.6897,58.0328
353.539,50.511,52.78,,353.539,93.625,92.69,,353.539,53.9503,0.569426,56.9426,57.9469
362.725,58.784,54.2691,,362.725,93.62,95.0673,,362.725,62.79,0.570849,57.0849,57.7879
371.936,52.918,55.567,,371.936,104.25,101.025,,371.936,50.7607,0.550035,55.0035,57.3848
381.171,63.983,62.0412,,381.171,112.399,109.069,,381.171,56.9249,0.568825,56.8825,56.087
390.432,72.869,66.9131,,390.432,126.82,117.99,,390.432,57.4586,0.56711,56.711,56.2635
399.718,181.955,136.655,,399.718,255.638,197.26,,399.718,71.1768,0.692769,69.2769,62.3858
409.028,1038.404,668.032,,409.028,1209.068,790.336,,409.028,85.8847,0.845251,84.5251,77.7273
418.364,5669.084,3863.6,,418.364,6943.145,4622.08,,418.364,81.6501,0.8359,83.59,85.3048
427.724,17657.561,13624.2,,427.724,26342.847,19491.6,,427.724,67.0298,0.698978,69.8978,76.9907
437.108,40371.415,32960,,437.108,63776.327,52378.6,,437.108,63.3016,0.629264,62.9264,65.7334
446.518,33990.875,40965.3,,446.518,61778.432,62848.5,,446.518,55.0206,0.65181,65.181,67.5575
455.952,6699.86,11948.8,,455.952,29348.811,39040.2,,455.952,22.8284,0.306063,30.6063,46.2357
465.411,3255.761,3981.72,,465.411,12896.067,16910.4,,465.411,25.2462,0.23546,23.546,25.0861
474.895,1242.5,1862.03,,474.895,6668.058,8047.41,,474.895,18.6336,0.231383,23.1383,24.799
484.403,219.391,407.687,,484.403,5161.596,5415.69,,484.403,4.25045,0.0752788,7.52788,15.103
493.936,232.511,191.93,,493.936,7190.779,6348.99,,493.936,3.23346,0.03023,3.023,4.42238
503.493,1536.397,1074.17,,503.493,12295.73,10671.8,,503.493,12.4954,0.100654,10.0654,5.66194
513.074,879.985,1239.43,,513.074,17987.804,16371.3,,513.074,4.89212,0.0757071,7.57071,10.5166
522.681,314.359,372.769,,522.681,21946.814,20907.2,,522.681,1.43237,0.0178297,1.78297,3.95443
532.311,894.5,624.511,,532.311,23496.634,23215.1,,532.311,3.80693,0.0269011,2.69011,1.91683
541.966,9652.216,5877.12,,541.966,23404.455,23474.1,,541.966,41.2409,0.250366,25.0366,9.87546
551.645,21586.134,19144.5,,551.645,22620.916,22902.4,,551.645,95.4256,0.835915,83.5915,55.6787
561.348,22781.255,22653.2,,561.348,21446.354,21819.4,,561.348,106.224,1.03821,103.821,96.0798
571.076,22081.857,22366,,571.076,19752.474,20281.2,,571.076,111.793,1.1028,110.28,107.245
580.828,20108.938,20810.9,,580.828,17905.662,18453.6,,580.828,112.305,1.12774,112.774,112.026
590.604,17176.884,18068.3,,590.604,15779.739,16404.7,,590.604,108.854,1.10141,110.141,111.684
600.404,14382.791,15194.4,,600.404,13544.34,14207.5,,600.404,106.19,1.06946,106.946,108.43
610.229,11887.026,12587.4,,610.229,11237.642,11910.8,,610.229,105.779,1.05681,105.681,106.094
620.077,9660.138,10311.5,,620.077,9110.589,9742.29,,620.077,106.032,1.05843,105.843,105.714
629.949,7713.596,8285.75,,629.949,7253.439,7787.88,,629.949,106.344,1.06393,106.393,106.183
639.846,5983.96,6485.2,,639.846,5684.101,6127.03,,639.846,105.275,1.05846,105.846,106.222
649.766,4536.861,4947.03,,649.766,4369.577,4738.13,,649.766,103.828,1.04409,104.409,105.116
659.71,3382.278,3719.11,,659.71,3288.685,3591.12,,659.71,102.846,1.03564,103.564,103.843
669.678,2503.801,2748.12,,669.678,2442.874,2674.65,,669.678,102.494,1.02747,102.747,103.084
679.67,1843.07,2020.94,,679.67,1818.585,1987.78,,679.67,101.346,1.01669,101.669,102.17
689.686,1344.989,1479.43,,689.686,1333.341,1461.62,,689.686,100.874,1.01218,101.218,101.357
699.726,965.45,1072.47,,699.726,971.408,1066.88,,699.726,99.3867,1.00524,100.524,100.938
709.789,709.019,778.71,,709.789,725.356,789.904,,709.789,97.7477,0.985829,98.5829,99.3332
719.876,500.175,556.086,,719.876,528.67,580.262,,719.876,94.6101,0.958337,95.8337,97.4341
729.987,367.965,405.485,,729.987,392.852,429.075,,729.987,93.665,0.945022,94.5022,95.1509
740.121,267.893,292.291,,740.121,301.501,327.788,,740.121,88.8531,0.891707,89.1707,91.8599
750.279,211.35,226.044,,750.279,240.537,254.717,,750.279,87.8659,0.887432,88.7432,89.0976
760.46,162.036,176.85,,760.46,198.468,211.289,,760.46,81.6434,0.837006,83.7006,85.683
770.665,132.353,138.79,,770.665,168.205,179.624,,770.665,78.6855,0.772666,77.2666,79.9677
780.894,108.404,110.77,,780.894,141.966,151.239,,780.894,76.3591,0.732421,73.2421,77.2404
791.146,98.765,98.5751,,791.146,132.738,137.751,,791.146,74.406,0.715602,71.5602,72.7383
801.421,82.377,84.2781,,801.421,125.872,125.831,,801.421,65.4451,0.669773,66.9773,70.1574
811.72,85.307,85.4057,,811.72,122.787,122.308,,811.72,69.4756,0.698283,69.8283,67.7628
822.042,111.747,96.788,,822.042,143.609,135.905,,822.042,77.8134,0.712172,71.2172,69.0547
832.387,163.9,146.579,,832.387,213.119,194.586,,832.387,76.9054,0.753285,75.3285,74.536
842.755,280.78,224.988,,842.755,374.652,296.792,,842.755,74.9442,0.758067,75.8067,76.3401
853.147,584.038,496.581,,853.147,839.505,701.563,,853.147,69.5693,0.70782,70.782,73.1852
863.562,749.236,708.84,,863.562,1167.416,1089.33,,863.562,64.179,0.650713,65.0713,67.6252
874,905.115,844.763,,874,1458.677,1350.71,,874,62.0504,0.625421,62.5421,63.7885
884.461,1152.481,1095.75,,884.461,2008.756,1856.17,,884.461,57.3729,0.590331,59.0331,61.1404
894.946,926.839,1030.68,,894.946,2096.312,2136.09,,894.946,44.2128,0.482509,48.2509,54.1001
905.453,465.181,581.381,,905.453,1501.394,1682.34,,905.453,30.9833,0.345578,34.5578,41.1409
915.983,241.2,292.032,,915.983,988.66,1118.11,,915.983,24.3967,0.261183,26.1183,29.8589
926.537,185.445,195.603,,926.537,680.557,763.298,,926.537,27.249,0.256261,25.6261,25.2293
937.113,140.87,154.972,,937.113,451.536,508.519,,937.113,31.198,0.304751,30.4751,27.9658
947.712,102.656,116.931,,947.712,329.143,359.08,,947.712,31.1889,0.325642,32.5642,32.41
958.334,66.167,76.0427,,958.334,270.377,284.768,,958.334,24.4721,0.267034,26.7034,29.8221
968.979,56.13,59.0611,,968.979,245.6,250.203,,968.979,22.8542,0.236053,23.6053,24.0287
979.646,53.998,51.3534,,979.646,261.812,255.071,,979.646,20.6247,0.201329,20.1329,21.8212
990.336,58.046,58.499,,990.336,304.103,287.506,,990.336,19.0876,0.203471,20.3471,20.3753
1001.049,68.816,62.8602,,1001.049,360.561,344.59,,1001.049,19.0858,0.18242,18.242,18.8831
1011.785,102.855,94.8689,,1011.785,460.821,427.638,,1011.785,22.3199,0.221844,22.1844,20.0858
1022.543,100.617,111.138,,1022.543,661.52,601.668,,1022.543,15.21,0.184716,18.4716,20.8897
1033.324,76.556,84.1083,,1033.324,766.018,742.532,,1033.324,9.99402,0.113272,11.3272,14.5901
1044.128,60.399,67.1665,,1044.128,790.858,786.687,,1044.128,7.63715,0.085379,8.5379,9.43884
1054.954,68.962,63.4132,,1054.954,785.495,789.002,,1054.954,8.77943,0.0803714,8.03714,7.98892
1065.802,77.246,72.759,,1065.802,755.742,768.407,,1065.802,10.2212,0.0946881,9.46881,8.75932
1076.673,126.341,105.993,,1076.673,725.053,733.084,,1076.673,17.4251,0.144585,14.4585,11.3741
1087.567,304.701,240.85,,1087.567,681.516,691.466,,1087.567,44.7093,0.348318,34.8318,22.9519
1098.461,502.78,454.658,,1098.461,651.492,658.739,,1098.461,77.1736,0.690194,69.0194,52.2939
1109.207,556.758,549.043,,1109.207,600.16,617.068,,1109.207,92.7683,0.889762,88.9762,80.0995
1119.954,529.544,539.802,,1119.954,551.335,571.208,,1119.954,96.0476,0.945018,94.5018,92.5364
1130.7,491.592,500.857,,1130.7,503.471,516.163,,1130.7,97.6406,0.970346,97.0346,96.1758
1141.446,443.175,456.43,,1141.446,436.474,453.839,,1141.446,101.535,1.00571,100.571,98.7393
1152.192,396.928,407.892,,1152.192,381.618,401.382,,1152.192,104.012,1.01622,101.622,100.909
1162.938,339.762,357.505,,1162.938,332.811,345.955,,1162.938,102.089,1.03339,103.339,103.497
1173.684,291.04,306.622,,1173.684,295.239,307.404,,1173.684,98.5778,0.997457,99.7457,101.797
1184.43,249.854,261.176,,1184.43,255.181,264.288,,1184.43,97.9125,0.988224,98.8224,98.6591
1195.177,200.026,213.868,,1195.177,220.372,233.904,,1195.177,90.7674,0.914341,91.4341,95.0015
1205.923,177.741,188.517,,1205.923,216.735,224.26,,1205.923,82.0084,0.840619,84.0619,88.2336
1216.669,156.913,170.514,,1216.669,185.106,198.968,,1216.669,84.7693,0.856995,85.6995,84.2357
1227.415,106.366,119.222,,1227.415,116.599,134.267,,1227.415,91.2238,0.887947,88.7947,87.5529
1238.161,83.015,89.9009,,1238.161,88.33,97.3703,,1238.161,93.9828,0.923289,92.3289,90.6406
1242.586,71.16,78.2033,,1242.586,79.058,86.0609,,1242.586,90.0099,0.908698,90.8698,

File: plexiglas_2C04.csv
wavelength_nm,intensity,intensity_smoothed,,wavelength_nm2,intensity_i0,intensity_i0_smoothed,,wavelength_nm3,,transmission,transmission_perc,transmission_perc_smoothed
173.232,12.691,#N/A,,173.232,26.786,#N/A,,173.232,47.3792,#N/A,#N/A,#N/A
182.226,12.31,12.6292,,182.226,35.237,34.8089,,182.226,34.9349,0.362815,36.2815,#N/A
191.22,17.216,18.1664,,191.22,34.688,38.2618,,191.22,49.631,0.474792,47.4792,43.8243
200.214,15.032,15.4323,,200.214,34.593,33.7256,,200.214,43.4539,0.457585,45.7585,45.43
209.208,16.029,16.6865,,209.208,39.771,35.6535,,209.208,40.3032,0.468019,46.8019,49.9712
218.203,16.39,16.5626,,218.203,37.039,33.577,,218.203,44.2507,0.493273,49.3273,45.3859
227.197,18.205,15.0695,,227.197,37.035,37.3027,,227.197,49.1562,0.40398,40.398,43.875
236.191,15.838,13.8446,,236.191,27.485,31.4748,,236.191,57.6242,0.439862,43.9862,44.2163
245.185,27.654,24.3508,,245.185,63.117,56.0939,,245.185,43.8139,0.434109,43.4109,49.987
254.158,31.65,30.9367,,254.158,77.748,75.9505,,254.158,40.7084,0.407327,40.7327,43.3298
263.066,35.193,36.1281,,263.066,83.107,83.5233,,263.066,42.3466,0.432551,43.2551,42.731
271.999,36.644,35.773,,271.999,80.375,82.205,,271.999,45.5913,0.435168,43.5168,43.0216
280.958,35.277,36.6613,,280.958,85.279,82.4355,,280.958,41.3666,0.444727,44.4727,43.7459
289.943,35.182,35.427,,289.943,89.91,87.607,,289.943,39.1302,0.404385,40.4385,40.3015
298.952,32.906,33.5437,,298.952,84.904,83.8708,,298.952,38.7567,0.399945,39.9945,40.2757
307.987,32.447,33.3786,,307.987,79.807,85.0579,,307.987,40.6568,0.392422,39.2422,39.4033
317.047,30.534,32.6036,,317.047,83.347,85.6554,,317.047,36.6348,0.380637,38.0637,39.5051
326.132,33.076,34.8266,,326.132,84.341,86.2212,,326.132,39.217,0.403922,40.3922,39.5435
335.243,38.163,34.2087,,335.243,93.698,90.7122,,335.243,40.7298,0.377112,37.7112,37.2966
344.379,26.431,33.5091,,344.379,90.874,88.2733,,344.379,29.0853,0.379606,37.9606,40.2807
353.539,35.786,35.0932,,353.539,93.625,92.69,,353.539,38.2227,0.378608,37.8608,36.9098
362.725,44.352,44.2384,,362.725,93.62,95.0673,,362.725,47.3745,0.465337,46.5337,43.8975
371.936,42.462,42.6153,,371.936,104.25,101.025,,371.936,40.7309,0.421831,42.1831,43.256
381.171,37.677,41.4662,,381.171,112.399,109.069,,381.171,33.5208,0.380184,38.0184,40.0448
390.432,36.288,36.3992,,390.432,126.82,117.99,,390.432,28.6138,0.308495,30.8495,33.2929
399.718,35.248,40.1309,,399.718,255.638,197.26,,399.718,13.7882,0.203442,20.3442,27.6302
409.028,43.69,42.853,,409.028,1209.068,790.336,,409.028,3.61353,0.0542212,5.42212,12.2154
418.364,50.955,45.9436,,418.364,6943.145,4622.08,,418.364,0.733889,0.00994003,0.994003,2.60444
427.724,37.278,42.5538,,427.724,26342.847,19491.6,,427.724,0.141511,0.00218319,0.218319,0.506322
437.108,46.96,45.783,,437.108,63776.327,52378.6,,437.108,0.0736323,0.000874079,0.0874079,0.134236
446.518,38.913,42.6357,,446.518,61778.432,62848.5,,446.518,0.062988,0.000678388,0.0678388,0.0747064
455.952,41.938,43.0443,,455.952,29348.811,39040.2,,455.952,0.142895,0.00110256,0.110256,0.0774901
465.411,38.133,38.2315,,465.411,12896.067,16910.4,,465.411,0.295695,0.00226082,0.226082,0.166806
474.895,43.292,40.6413,,474.895,6668.058,8047.41,,474.895,0.649245,0.00505024,0.505024,0.344054
484.403,41.124,40.219,,484.403,5161.596,5415.69,,484.403,0.79673,0.00742638,0.742638,0.65239
493.936,42.201,44.2975,,493.936,7190.779,6348.99,,493.936,0.586877,0.00697709,0.697709,0.781525
503.493,44.521,46.1028,,503.493,12295.73,10671.8,,503.493,0.362085,0.00432004,0.432004,0.563583
513.074,47.081,44.4144,,513.074,17987.804,16371.3,,513.074,0.261738,0.00271294,0.271294,0.326168
522.681,46.907,44.5522,,522.681,21946.814,20907.2,,522.681,0.21373,0.00213095,0.213095,0.243851
532.311,208.195,123.366,,532.311,23496.634,23215.1,,532.311,0.886063,0.00531404,0.531404,0.300262
541.966,2359.119,1444.11,,541.966,23404.455,23474.1,,541.966,10.0798,0.0615192,6.15192,2.43267
551.645,8187.414,6402.74,,551.645,22620.916,22902.4,,551.645,36.194,0.279566,27.9566,15.8921
561.348,13003.818,11795.8,,561.348,21446.354,21819.4,,561.348,60.6342,0.540612,54.0612,41.4407
571.076,15025.195,14588.1,,571.076,19752.474,20281.2,,571.076,76.0674,0.719294,71.9294,63.6332
580.828,15293.87,15301.9,,580.828,17905.662,18453.6,,580.828,85.4136,0.829207,82.9207,77.8555
590.604,14456.256,14755.7,,590.604,15779.739,16404.7,,590.604,91.6128,0.899485,89.9485,86.6752
600.404,12960.097,13439.5,,600.404,13544.34,14207.5,,600.404,95.6864,0.945947,94.5947,92.52
610.229,11043.504,11609.5,,610.229,11237.642,11910.8,,610.229,98.2724,0.974705,97.4705,96.0863
620.077,9044.13,9641.56,,620.077,9110.589,9742.29,,620.077,99.2705,0.98966,98.966,98.3647
629.949,7270.849,7798.31,,629.949,7253.439,7787.88,,629.949,100.24,1.00134,100.134,99.6976
639.846,5698.528,6158.9,,639.846,5684.101,6127.03,,639.846,100.254,1.0052,100.52,100.368
649.766,4381.925,4758.58,,649.766,4369.577,4738.13,,649.766,100.283,1.00432,100.432,100.43
659.71,3282.953,3589.81,,659.71,3288.685,3591.12,,659.71,99.8257,0.999633,99.9633,100.06
669.678,2426.082,2667.61,,669.678,2442.874,2674.65,,669.678,99.3126,0.997368,99.7368,99.8854
679.67,1793.271,1970.76,,679.67,1818.585,1987.78,,679.67,98.608,0.991441,99.1441,99.5017
689.686,1303.229,1433.54,,689.686,1333.341,1461.62,,689.686,97.7416,0.980788,98.0788,98.4611
699.726,938.094,1037.16,,699.726,971.408,1066.88,,699.726,96.5705,0.972142,97.2142,97.5979
709.789,677.66,749.39,,709.789,725.356,789.904,,709.789,93.4245,0.94871,94.871,96.1833
719.876,481.238,533.069,,719.876,528.67,580.262,,719.876,91.0281,0.91867,91.867,93.259
729.987,348.464,383.838,,729.987,392.852,429.075,,729.987,88.7011,0.894571,89.4571,90.6546
740.121,255.134,278.925,,740.121,301.501,327.788,,740.121,84.6213,0.850933,85.0933,87.7893
750.279,195.373,213.406,,750.279,240.537,254.717,,750.279,81.2237,0.837815,83.7815,84.6655
760.46,140.23,159.225,,760.46,198.468,211.289,,760.46,70.6562,0.75359,75.359,79.0559
770.665,115.106,122.585,,770.665,168.205,179.624,,770.665,68.432,0.68245,68.245,71.9164
780.894,88.897,100.949,,780.894,141.966,151.239,,780.894,62.6185,0.667482,66.7482,68.7852
791.146,80.244,84.5279,,791.146,132.738,137.751,,791.146,60.4529,0.613627,61.3627,63.3813
801.421,71.637,69.6261,,801.421,125.872,125.831,,801.421,56.9126,0.553331,55.3331,58.0857
811.72,70.41,63.9274,,811.72,122.787,122.308,,811.72,57.3432,0.522674,52.2674,54.2103
822.042,60.923,58.0211,,822.042,143.609,135.905,,822.042,42.4228,0.426923,42.6923,49.3882
832.387,50.011,54.1072,,832.387,213.119,194.586,,832.387,23.4662,0.278063,27.8063,35.681
842.755,47.304,48.8184,,842.755,374.652,296.792,,842.755,12.6261,0.164487,16.4487,21.9213
853.147,54.924,58.4666,,853.147,839.505,701.563,,853.147,6.54243,0.0833375,8.33375,11.3294
863.562,43.63,47.6179,,863.562,1167.416,1089.33,,863.562,3.73731,0.0437131,4.37131,5.85084
874,32.49,35.5334,,874,1458.677,1350.71,,874,2.22736,0.0263072,2.63072,3.42226
884.461,32.75,31.1973,,884.461,2008.756,1856.17,,884.461,1.63036,0.0168074,1.68074,2.14867
894.946,38.076,33.7132,,894.946,2096.312,2136.09,,894.946,1.81633,0.0157827,1.57827,1.61862
905.453,38.28,38.1636,,905.453,1501.394,1682.34,,905.453,2.54963,0.0226848,2.26848,1.94694
915.983,37.046,38.8375,,915.983,988.66,1118.11,,915.983,3.74709,0.0347349,3.47349,2.85064
926.537,42.977,39.4596,,926.537,680.557,763.298,,926.537,6.31497,0.0516962,5.16962,4.21824
937.113,40.085,38.514,,937.113,451.536,508.519,,937.113,8.87748,0.0757376,7.57376,6.14794
947.712,36.641,38.6466,,947.712,329.143,359.08,,947.712,11.1322,0.107627,10.7627,9.68095
958.334,42.463,40.6395,,958.334,270.377,284.768,,958.334,15.7051,0.142711,14.2711,12.6123
968.979,45.552,42.2554,,968.979,245.6,250.203,,968.979,18.5472,0.168885,16.8885,15.3143
979.646,35.451,41.0786,,979.646,261.812,255.071,,979.646,13.5406,0.161048,16.1048,16.6498
990.336,41.432,41.9428,,990.336,304.103,287.506,,990.336,13.6243,0.145885,14.5885,15.0372
1001.049,40.313,41.0888,,1001.049,360.561,344.59,,1001.049,11.1806,0.11924,11.924,13.4643
1011.785,46.002,43.8548,,1011.785,460.821,427.638,,1011.785,9.98262,0.102551,10.2551,11.35
1022.543,50.407,47.9596,,1022.543,661.52,601.668,,1022.543,7.61988,0.0797111,7.97111,9.31222
1033.324,45.8,45.9281,,1033.324,766.018,742.532,,1033.324,5.97897,0.0618533,6.18533,6.85201
1044.128,46.815,46.334,,1044.128,790.858,786.687,,1044.128,5.91952,0.0588976,5.88976,6.04079
1054.954,46.724,49.0124,,1054.954,785.495,789.002,,1054.954,5.94835,0.0621195,6.21195,6.1258
1065.802,50.707,49.4576,,1065.802,755.742,768.407,,1065.802,6.70956,0.0643639,6.43639,6.29547
1076.673,71.126,62.1746,,1076.673,725.053,733.084,,1076.673,9.80977,0.0848123,8.48123,7.27498
1087.567,101.89,87.9743,,1087.567,681.516,691.466,,1087.567,14.9505,0.127229,12.7229,10.4121
1098.461,169.54,152.886,,1098.461,651.492,658.739,,1098.461,26.0233,0.232088,23.2088,17.6773
1109.207,240.076,222.116,,1109.207,600.16,617.068,,1109.207,40.002,0.359955,35.9955,29.2813
1119.954,280.042,271.267,,1119.954,551.335,571.208,,1119.954,50.7934,0.4749,47.49,41.8122
1130.7,298.253,296.837,,1130.7,503.471,516.163,,1130.7,59.2394,0.575083,57.5083,53.2363
1141.446,293.71,300.054,,1141.446,436.474,453.839,,1141.446,67.2915,0.661146,66.1146,61.7768
1152.192,280.775,287.728,,1152.192,381.618,401.382,,1152.192,73.5749,0.716844,71.6844,68.7089
1162.938,262.541,268.856,,1162.938,332.811,345.955,,1162.938,78.8859,0.777141,77.7141,74.4563
1173.684,231.281,240.66,,1173.684,295.239,307.404,,1173.684,78.3369,0.782878,78.2878,78.2027
1184.43,201.727,214.13,,1184.43,255.181,264.288,,1184.43,79.0525,0.810214,81.0214,79.3971
1195.177,164.793,177.623,,1195.177,220.372,233.904,,1195.177,74.7795,0.759387,75.9387,77.9698
1205.923,146.126,155.413,,1205.923,216.735,224.26,,1205.923,67.4215,0.693003,69.3003,74.0492
1216.669,113.647,120.822,,1216.669,185.106,198.968,,1216.669,61.3956,0.607245,60.7245,63.9055
1227.415,94.551,101.043,,1227.415,116.599,134.267,,1227.415,81.0907,0.75255,75.255,65.469
1238.161,69.311,74.4204,,1238.161,88.33,97.3703,,1238.161,78.4682,0.764303,76.4303,76.6487
1242.586,60.316,67.0215,,1242.586,79.058,86.0609,,1242.586,76.2934,0.778768,77.8768,